timestamp,acc_x,acc_y,acc_z,gyro_x,gyro_y,gyro_z
0.102080078125,0.9723235219210384,-0.9177148566380142,1.962846717399359,0.3387892544269562,-0.0090472400188446,-0.3541959226131439
0.12213330078125,1.0109859185967591,-1.1512784786451606,2.8246692986845967,0.2413729578256607,-0.012263273820281,-0.3886931836605072
0.14218603515625,1.0581369613502174,-0.8843285737343132,2.288097493174672,0.1966877728700637,0.2408725917339325,-0.3328794538974762
0.1622392578125,1.383964148773998,-0.6496807366870343,1.431997965711355,0.3105907738208771,0.4917054772377014,-0.1630964428186416
0.182292236328125,1.007172790049389,-0.399748273278959,0.999022143754363,0.3349027037620544,0.4051359891891479,-0.1729336678981781
0.202344970703125,1.8919643781855704,-0.2818934262163937,0.4425730868637561,0.162371814250946,0.1916492730379104,0.0391655042767524
0.222398193359375,1.491426598496735,0.0696784798493608,-3.025105361789465,0.2823254466056824,0.1189956739544868,0.2596701681613922
0.242451171875,0.0645207226268481,0.0973942793685942,-5.524739573276043,0.553292453289032,0.3753545880317688,0.2755237519741058
0.26250390625,-0.554183596176654,0.5511187287133187,-5.28758969027996,0.5730694532394409,0.4569000899791717,0.093856930732727
0.28255712890625,-0.8979461801983416,1.6020625636890529,-4.391581930798292,0.0602685697376728,0.5008765459060669,-0.0030842334963381
0.3026103515625,-1.170741669332236,2.224692942495644,-7.256247139784693,-0.2244618535041809,0.2895390689373016,-0.0086953826248645
0.322663330078125,-1.01104086365439,2.6522359257489443,-10.312815561330318,-0.1361596882343292,-0.15236896276474,-0.0323228240013122
0.34271630859375,-0.1064671368087641,2.723558702206612,-10.871563542813062,-0.0809896439313888,-0.5017186999320984,0.0317379161715507
0.362769287109375,0.0106996001254767,1.8603642480462788,-9.180951465794443,-0.3532466888427734,-0.7023981809616089,0.1525335609912872
0.382822265625,-2.644675427366793,0.3301038418296724,-7.349768888568878,-0.5106275677680969,-0.9761882424354552,-0.4265361130237579
0.402875244140625,-2.7390155067965387,-0.7739931258585303,-5.103908947142958,-0.6524704694747925,-1.0318973064422607,-1.073163390159607
0.42292822265625,0.1962508133094757,0.3492577473718672,-3.6871009517788886,-0.4789333939552307,-0.3394058346748352,-0.9728934168815612
0.442981201171875,1.4748315836571155,0.2485251538934186,1.2870914821267128,-0.4492590129375458,0.2269794046878814,-0.8468431830406189
0.4630341796875,1.3689948354400694,-0.7675269255191087,7.0251634249597785,-0.6196749210357666,-0.0268894545733928,-0.9954203367233276
0.483087158203125,2.7760511059880253,-0.5388153831856325,8.295999353334308,-0.5241906046867371,-0.3819522261619568,-0.7236127853393555
0.50314013671875,2.3038702318459747,-0.9040431088339536,8.245574403476715,-0.1779942810535431,-0.4359524250030517,-0.5272112488746643
0.523193115234375,1.710740380550921,-1.614023781248182,10.53343984146118,-0.3312897086143493,-0.042182445526123,-0.4959413707256317
0.543246337890625,1.998312875317037,-1.858975424036384,9.846004689788815,-0.3679162859916687,0.3590569794178009,-0.4584516584873199
0.563299560546875,2.560278649802506,-1.9237353348471224,8.626580384221672,0.046067476272583,0.1147989928722381,-0.2406014800071716
0.5833525390625,2.3151818994551894,-1.7951944412603973,8.963397679150104,0.4226559400558471,-0.2862186431884765,0.0212314799427986
0.6034052734375,2.113207520867139,-1.558390449092537,9.908564898598192,0.3178139925003052,-0.3749204874038696,0.2447939962148666
0.623458740234375,2.224512032970786,-1.121434909849614,8.669870075371861,0.2818920910358429,-0.1488477736711502,0.4867966175079345
0.64351171875,0.926378347826004,-0.967643182085082,7.794497107639908,0.4224638640880584,0.1995411664247512,0.4935062527656555
0.663564697265625,0.2007845477489754,-1.035284274355322,8.232998415020107,0.4114050269126892,0.3845696747303009,0.4059954285621643
0.68361767578125,0.6439058065474033,-0.5719467049475759,7.536254167732596,0.387256920337677,0.4631024301052093,0.4791031777858734
0.703670654296875,0.4640662124758586,-0.3929227746404707,5.756212579679489,0.3263505399227142,0.4555346667766571,0.582751989364624
0.7237236328125,-0.31921441822052,-0.7678953204400837,2.67574247354269,0.1611071974039077,0.5220842361450195,0.5817298293113708
0.743776611328125,-1.1588970638900995,-1.010799309983477,-2.1808049931913613,0.3850329220294952,0.5689011216163635,0.4755785465240478
0.76382958984375,-0.8694641090143471,-0.3528207736156881,-5.788882677137852,0.6236334443092346,0.5268338918685913,0.5108301639556885
0.783882568359375,0.4855762892227619,0.2888624615114182,-8.007619633838534,0.6679051518440247,0.0298937372863292,0.7353489398956299
0.803935546875,-0.8770247535269707,-0.674462199787423,-9.078397100248932,0.2844144403934479,-1.354177951812744,0.6714272499084473
0.823988525390625,-3.023623891060054,0.1644622479259967,-15.410858831310271,0.279997318983078,-1.727808713912964,0.3436910212039947
0.84404150390625,-2.283315811856091,1.4017092104315756,-17.781510104531048,0.3500009775161743,-0.158592939376831,0.1616785228252411
0.864094482421875,-1.6583251336589455,1.1705625864382831,-14.725448463463785,0.1718207150697708,0.6403548121452332,0.0210165344178676
0.8841474609375,-1.5750973998740314,0.3189515295006334,-11.990033319246768,0.2359752804040908,0.026361433789134,-0.1024052202701568
0.904200439453125,-1.0980962659686804,0.2148334217697382,-8.86379514914751,0.1489579826593399,-0.4077506959438324,-0.1441264748573303
0.924253662109375,-1.5929025211557746,0.017462372258678,-4.898311555752158,-0.2543941736221313,-0.4252738654613495,-0.4273869097232818
0.944306396484375,-0.6085670013364404,0.5297384523585439,-2.088456964361668,-0.5376774072647095,-0.284157246351242,-0.4353788495063782
0.964359375,-0.3325094416666775,0.3898142141658812,0.0124123223274946,-0.5759758353233337,-0.5202248096466064,-0.4286944568157196
0.984412841796875,0.1486188551712781,-0.3247209797475486,2.0513135208815334,-0.6361119151115417,-0.7446027994155884,-0.4608069062232971
1.004465576171875,1.165860619292408,-0.3428278604548424,1.676250958710909,-0.4867983162403106,-0.2808930277824402,-0.3605718910694122
1.0245185546875,0.296751753456518,-0.4929353102160617,3.1825159376382826,-0.2662093043327331,0.4254709184169769,-0.4920986592769623
1.04457177734375,0.3814968330018222,-0.3368656275821849,6.35651889847517,-0.1293485164642334,0.8895419239997864,-0.5928173065185547
1.06462451171875,1.8469222904101013,-0.0847465043174102,8.861006979733705,-0.1562203019857406,0.8711704015731812,-0.4396187961101532
1.084677734375,2.741445072031021,-0.1661398988146334,10.22521092763543,-0.280610054731369,0.427647203207016,-0.1118119060993194
1.104730712890625,1.189687631212175,-0.2425703006096184,9.636474635124204,-0.1281864792108535,0.2399800270795822,0.0643117353320121
1.124783447265625,0.850954711920768,-0.4912645274596288,9.974936190128323,-0.1799057126045227,0.2074309289455413,0.17044298350811
1.144836669921875,0.6575250935118645,-0.7624649659544229,9.864041866260768,-0.3844647109508514,0.0874420255422592,0.1444926708936691
1.1648896484375,0.4812243776235729,-0.8080642492212354,8.37118874209225,-0.3776096701622009,0.110405221581459,0.1452343612909317
1.1849423828125,0.5809742071423679,-0.5221607836458831,5.935784133931994,0.0264083221554756,0.355375736951828,0.1257397681474685
1.20499560546875,0.7426104378622025,-0.3408299646358936,5.79192452905178,0.3584301769733429,0.5514174699783325,0.1465556472539901
1.225048583984375,0.95840780929327,-0.0217962002119049,6.43266748765409,0.4252707064151764,0.5418682098388672,0.2977438271045685
1.2451015625,-0.0610774594383314,-0.0006218582253903,5.502285164883732,0.4248273372650146,0.489864706993103,0.3291694521903991
1.265154541015625,-0.5497148532647639,0.8529865830745548,3.827697170948982,0.2655182778835296,0.6615630984306335,0.3955801427364349
1.28520751953125,-1.0052877069551498,0.6932086205072701,1.5412380926311016,0.0918881446123123,0.6864852905273438,0.421821266412735
1.305260498046875,-1.3045778928481042,-0.4872455376092344,-2.621879950451851,0.1266366988420486,0.1780155450105667,0.2606151401996612
1.325313720703125,-1.116820986313373,-1.1911968667313455,-5.965879996988177,0.0662221908569336,-0.5600525140762329,0.0736747309565544
1.34536669921875,-1.5129090931169689,-1.5349198493950067,-9.030646338036656,-0.3245237171649933,-1.476769208908081,-0.253703773021698
1.365420654296875,-1.4183157695785165,-0.5002760649003088,-16.27875810216069,-0.4448238611221313,-1.8170491456985476,-0.5051426291465759
1.3854736328125,-0.6572131780184804,0.4499518720034509,-22.738200784015653,-0.157484546303749,-0.809881329536438,-0.6059057116508484
1.405526611328125,-0.916759601739794,0.7916592039957642,-21.705897717428208,0.058117751032114,0.3754698634147644,-0.6661742925643921
1.42557958984375,-1.6307931297414004,0.0735986855003982,-16.611057627403735,0.1295265108346939,0.4532928168773651,-0.7852270603179932
1.445632568359375,-0.9166853674598038,-0.5482797058951109,-12.254833425712585,0.2803561687469482,-0.316110759973526,-0.9109854698181152
1.465685546875,-0.3199349875800311,-0.730567606434226,-6.754661891981959,0.1868172138929367,-0.4294551908969879,-0.8993792533874512
1.485738525390625,-0.6600310119181871,-0.3251194044806063,-3.0840023719161747,0.189315527677536,0.3920744061470032,-0.9542664885520936
1.50579150390625,0.3776462219882756,0.3794846894618123,1.545471200156212,0.3331007063388824,0.7661293148994446,-0.8746914863586426
1.525844482421875,1.4492407769352196,0.274163270355761,6.736995302388071,0.3918162584304809,-0.3095089495182037,-0.9119656085968018
1.545897705078125,1.3265828039072454,0.5731771235253662,10.62917283655405,-0.1291834414005279,-0.565032422542572,-0.9621908664703368
1.56595068359375,2.5915605077728627,1.0487259397305548,9.49467079373002,-0.3348081111907959,0.0260206516832113,-0.5959044694900513
1.586003662109375,1.7367863836944102,0.5652089211251586,9.083470750251411,0.034928310662508,0.3278365433216095,-0.3249286711215973
1.60605712890625,0.4256564388543367,-0.5244483831264078,11.907033548998832,0.0298780612647533,0.2470668703317642,-0.3563976287841797
1.62610986328125,-0.2331322265862487,-0.9974291024092584,12.991418685001134,-0.2312895059585571,0.2610876560211181,-0.471821665763855
1.646162841796875,0.7943188516590743,-0.5743762701820582,11.581169609761238,-0.3441183269023895,0.2451097816228866,-0.4044125378131866
1.666216064453125,1.7210742891691624,-0.2612424505168572,10.33358946928978,-0.3733039200305938,0.0457536093890666,-0.1703755110502243
1.686268798828125,1.7459009796507656,0.0060162646148353,9.162090697979927,-0.3106690347194671,-0.0986132472753524,0.1257229894399643
1.706322021484375,0.7408525613442063,-0.2418728198647499,7.00636227837801,0.0478325709700584,0.1022718697786331,0.2546470165252685
1.726375,0.0016594211122021,-0.6187196351036429,7.066569202059507,-0.0026286877691745,0.6396107077598572,0.1409515589475631
1.746427734375,0.2832582117635756,-0.2851037300324067,6.007450024738907,-0.0806652158498764,1.1045376062393188,0.1586592495441436
1.76648095703125,1.1515979929231106,0.2125086686166003,3.8188165298789736,0.2305856794118881,1.0627351999282837,0.5207332968711853
1.78653369140625,0.8613368435949087,0.3295302797254175,1.6213228522151708,0.6696220636367798,0.6418240666389465,0.8623166084289551
1.806586669921875,-0.3071795143706723,0.0092203944183886,-0.161955233541131,0.718338668346405,0.3111066520214081,0.9899263978004456
1.826639892578125,-1.3899356243990362,0.1274376085199415,-4.097341210314632,0.6889931559562683,-0.1541866660118103,0.8671690821647644
1.846692626953125,-1.0699600125476718,0.1773420416347682,-8.767192970004677,0.7641180157661438,-0.8385012149810791,0.7026541829109192
1.866745849609375,-1.4596085878230631,-0.3598078560240566,-12.132266199707985,0.564795732498169,-1.1413171291351318,0.3378375470638275
1.886799560546875,-2.1905302683919667,0.449904744926095,-14.681971725308896,0.1718625873327255,-0.6141854524612427,0.0299756489694118
1.906852783203125,-1.1591758077662435,1.3883834265209734,-17.421719345772264,0.1434708684682846,-0.0811729505658149,0.011242588981986
1.926906005859375,-0.6407698466092348,1.1712345674157143,-16.601188559818265,0.2206935435533523,-0.0634079799056053,0.1030273512005806
1.946958740234375,-1.575267203482985,0.7778741320103406,-13.466381298816204,0.113888494670391,-0.1122194826602935,0.0689663961529731
1.967011962890625,-2.045164058341086,0.074072367426753,-10.029605353426932,-0.1478538513183593,-0.2256287485361099,-0.1054510250687599
1.98706494140625,-1.7012015678331256,-0.2993647854991257,-7.191244213998317,-0.3893911838531494,-0.3419380486011505,-0.3430625796318054
2.00711767578125,-1.3925339703291657,0.1403260239265859,-4.247593146580457,-0.4136898517608642,-0.2238537818193435,-0.5239288806915283
2.0271708984375,-1.2601777562379837,0.785010852022469,0.3563011630773544,-0.4731319546699524,-0.0221129227429628,-0.6515031456947327
2.047223876953125,-0.1449258641385473,1.044380750133097,4.30904042571187,-0.6629277467727661,-0.335903525352478,-0.6384330987930298
2.06727685546875,1.6708561139300464,1.7221289127886297,5.490442751398683,-0.6406581401824951,-0.6989026665687561,-0.143065720796585
2.087329833984375,1.4330825460776686,1.6536929438136516,4.890767131721973,-0.1442410796880722,-0.5893315076828003,0.1855896264314651
2.1073828125,0.4562800521116703,0.7681805671222508,7.6617843351960175,-0.0428007803857326,-0.1158459186553955,0.1365558505058288
2.127435791015625,-0.6930425432253629,-0.0729074883658438,10.586722518837451,-0.3073957562446594,0.3194994032382965,-0.1645282804965973
2.14748876953125,0.0095416622620075,-0.2979956160377711,11.207419299232958,-0.4004081487655639,0.4811090230941772,-0.2664228081703186
2.167541748046875,1.2150687407061458,-0.3452129289604723,11.320185262191297,-0.3542944192886352,0.1821627020835876,-0.1022357046604156
2.1875947265625,1.5340297686874866,-0.3206868288606405,10.916827748906613,-0.2722363770008087,-0.1744116842746734,0.0900853425264358
2.207647705078125,1.526807708479464,-0.4182776537146419,10.52191774597168,-0.27548348903656,-0.2039978504180908,0.259551465511322
2.227701171875,0.4271122636858374,-1.148773437021673,10.15089130744934,-0.3389162719249725,-0.1504194140434265,0.1027262210845947
2.24775390625,0.3381086499132216,-1.3462930281579493,9.708536831772326,-0.5170372724533081,0.0701327323913574,-0.0740761831402778
2.267807861328125,1.2963700364731252,-0.8346925092320888,7.3950857016325,-0.4334022998809814,0.3292479515075683,-0.0283820554614067
2.28786083984375,2.3588467075280843,-0.4251854603417217,5.856084574273228,-0.1197907254099845,0.3655984401702881,0.3062179982662201
2.307913818359375,1.6694940317966045,-0.3640907575076446,5.165532751885056,0.1416146010160446,0.2512913644313812,0.6254727840423584
2.327967041015625,-0.705388156992197,-0.7021911875817924,4.359967479872704,0.0839194059371948,0.1876069158315658,0.5944280624389648
2.348019775390625,-1.828933775385469,-0.540561605798453,2.01206112242341,-0.2664802074432373,0.2392564117908477,0.4164408147335052
2.36807275390625,-1.7706980056464672,-0.3545445652009919,-3.3885727632343765,-0.6278896927833557,0.0948732644319534,0.3493687510490417
2.388125732421875,-1.1644324861854314,0.4115653696596622,-11.88279342623353,-0.4697981774806976,-0.2458659559488296,0.5057756900787354
2.4081787109375,-1.2744997115790844,0.4586521150052547,-18.0959735288322,-0.0023612105287611,-0.7113119959831238,0.4686107635498047
2.42823193359375,-1.2244958366777747,-0.0040956718157976,-19.035396067148447,0.0548489429056644,-0.8082138299942017,0.2980909049510956
2.44828466796875,-0.3277460997223854,0.4903200496837496,-19.92025582515001,0.1513100862503051,-0.4996724724769592,0.1919633895158767
2.468337646484375,0.1198350610943511,1.2474822330549358,-19.616893640577796,0.3445037007331848,-0.2567122280597687,0.1850829273462295
2.488390869140625,0.0030447014581412,1.69604608476609,-17.92772474810481,0.5648096203804016,-0.8392041325569153,0.2809515595436096
2.508443603515625,-1.2383869263209402,1.6185234307549894,-16.08446653316021,0.8985649347305298,-1.6367806196212769,0.2325709015130996
2.52849658203125,-3.789072549000382,0.7817643443819134,-10.323131203639509,0.6838687658309937,-0.9857495427131652,-0.268537163734436
2.548548583984375,-5.450076838740706,0.17222864414379,-2.5922376763820645,-0.1490847915410995,0.4741962254047394,-1.2924922704696655
2.5686015625,-2.9261557427376506,-0.0299041033437475,2.649513807308674,-0.6392804980278015,1.1981037855148315,-2.029984474182129
2.588654296875,2.923437715950608,0.904109086742252,4.335408792677521,-0.334862470626831,0.592778205871582,-1.7604327201843262
2.608708740234375,5.675546220815181,1.362094116140902,6.74182871389389,0.1890709996223449,-0.2407797873020172,-0.8695504069328308
2.628761474609375,4.026619614620507,1.0146229599248615,9.39642201642394,0.4269341230392456,-0.4235584139823913,-0.3990206718444824
2.648814697265625,2.2946537829503417,0.3824643628597259,12.380697355175018,0.204544261097908,-0.054375123232603,-0.3371642231941223
2.66886767578125,1.500012932795286,0.0463430873714387,13.418635212779044,-0.0838762000203132,0.6026970744132996,-0.4466996788978576
2.68892041015625,0.868896026802808,-0.1679182701313868,13.811905047291516,-0.1138682216405868,0.919263243675232,-0.6402623653411865
2.7089736328125,1.3737411531843244,-0.1822453035064041,14.48899065438509,-0.0910794585943222,0.7453814148902893,-0.6517862677574158
2.729026611328125,2.179056395958364,-0.1117677091686055,14.276498242783546,-0.1464006751775741,0.2443382889032364,-0.4721269309520721
2.74907958984375,2.241956065855175,0.007870660309866,13.054126193326711,-0.1226619929075241,-0.2328841090202331,-0.1943408697843551
2.769132568359375,1.4978329584077,-0.2552219115857034,10.66606318205595,0.1078482568264007,-0.4365994334220886,-0.0419033430516719
2.789185546875,1.0704057104885578,-0.340580556452088,9.83924761674404,0.0974567905068397,-0.3092316389083862,-0.0169290639460086
2.809238525390625,1.1165627007033676,-0.2886102768486365,8.676839329862593,-0.1358301788568496,0.0940116047859191,0.0101404190063476
2.82929150390625,1.310476449367404,-0.1851725160647183,6.009973405736685,-0.0985139086842536,0.5914668440818787,0.151854932308197
2.849344482421875,0.6849474265098572,-0.2246535356469452,3.666892861008644,-0.0025763777084648,0.848325252532959,0.2367666661739349
2.8693974609375,-0.170290278226044,-0.2906018890572712,0.8255722872525453,-0.0934945121407508,0.9167365431785583,0.278457373380661
2.889450439453125,-0.4660754699390381,-0.3037415027460083,-2.893375755164027,-0.4569170176982879,0.5734508633613586,0.4601088166236877
2.90950390625,-1.8655422352060675,0.4438666338056325,-11.37275131573081,-0.2288177609443664,-0.3736774921417236,0.5540490746498108
2.929556640625,-3.125129039813578,1.4665873407945036,-17.90778553740382,0.1461205929517746,-0.8519383668899536,0.509117603302002
2.949609619140625,-2.944065201176703,1.4727584306448698,-20.128181951749323,0.1301483064889907,-0.3648591339588165,0.4455001056194305
2.969662841796875,-3.115413993746042,1.1954077624246475,-18.808350229537485,-0.0231320187449455,0.5444011092185974,0.268805980682373
2.989715576171875,-1.043225515683368,1.1756702117756008,-15.447300264000893,-0.0757697075605392,0.797883927822113,0.3119067251682281
3.009769775390625,0.3098838048933073,0.630939065207541,-12.184590261185168,-0.167623221874237,0.1984947174787521,0.391009122133255
3.029822509765625,1.1406160687249154,0.2017961359443142,-11.202347987318038,-0.1857787668704986,-0.901877224445343,0.5867748260498047
3.04987548828125,1.0739731937117871,0.0721578207760118,-11.347788723909854,-0.0444900430738925,-1.4019525051116943,0.7857391238212585
3.069928466796875,-0.5189196828328073,-0.2272401546066626,-9.238521611231564,-0.0426387377083301,-0.5425896644592285,0.6392732858657837
3.0899814453125,-1.7170498559586702,-0.9445159159325064,-4.233197541481256,-0.098165176808834,0.3685676157474518,0.1450931280851364
3.11003466796875,-0.5154051353732124,-0.810702196509391,1.824972032147646,-0.1457200646400451,0.584639847278595,-0.1014250665903091
3.13008740234375,1.2184496883813292,-0.919270123255998,6.950303122025728,-0.3066284656524658,-0.146385908126831,-0.178406074643135
3.150140380859375,1.9387559399768708,-0.6551631866861134,9.467449609327316,-0.5306628346443176,-0.6032459139823914,-0.1401782929897308
3.17019384765625,1.88234139431566,-0.2335990769130177,8.789476113483309,-0.4028017520904541,-0.0409488268196582,-0.0494205057621002
3.19024658203125,1.356737557543814,-0.7846224372267723,9.614687166208029,-0.1944455206394195,0.5294259786605835,-0.1749655902385711
3.210299560546875,1.2309331031836568,-0.9375794677328316,12.396002476334573,-0.2965371906757355,0.8044984936714172,-0.2431968599557876
3.230352783203125,1.8567203385859727,-0.7419783505037426,12.988228364527224,-0.3879114687442779,0.8107945322990417,-0.1108316630125045
3.250405517578125,1.907286596610397,-0.8170667631052434,12.716287738656996,-0.3144532442092895,0.5213655829429626,0.0183984264731407
3.270458740234375,1.3531301807016134,-0.9778937232688067,12.38865737426877,-0.2582125663757324,0.0490249618887901,0.0428477637469768
3.29051171875,2.1357981228597462,-0.5694677476134151,11.691916634112596,-0.3402229845523834,-0.3341841399669647,0.286327600479126
3.310564453125,1.3988903536185622,-0.7693259377650916,9.136444215548035,-0.1415182203054428,-0.6175512075424194,0.4325625896453857
3.33061767578125,0.1666022190967574,-1.0761696808427572,6.714395932567119,0.1821771264076233,-0.3683200478553772,0.3254311978816986
3.350670654296875,0.1754497250821441,-1.0286552116043866,6.151101539826393,0.0256101228296756,0.5377545952796936,0.240092247724533
3.370723388671875,0.4762576220616697,-0.7680857284456492,3.922655674538016,-0.0011992482468485,1.2288848161697388,0.3215602040290832
3.390776611328125,0.0228582764854654,-1.027806558885798,1.8371148898839949,0.1781740635633468,1.032692313194275,0.4549190104007721
3.41082958984375,-1.0474663681235163,-1.0103343958854674,-0.7435533447355032,0.2299863547086715,0.6404919028282166,0.5481914281845093
3.430882568359375,-1.8512101968623695,-0.5867945838589221,-5.165018957144022,0.1988029032945633,0.3432753980159759,0.5706527233123779
3.450935546875,-2.592445766174793,0.1207419833388179,-10.514265185391904,0.0547245889902114,-0.2500980198383331,0.4160624146461487
3.470988525390625,-1.825508915503323,0.4038265555685386,-16.013394516593216,-0.0103176767006516,-1.2287745475769043,0.2731893956661224
3.49104150390625,-1.2786102156378327,1.3664403286516666,-20.72526404780149,0.0944446325302124,-1.171872615814209,0.2995310127735138
3.511094482421875,-1.8928034593582157,2.193603392226994,-21.75456734805107,0.1880685985088348,-0.0630215182900428,0.3062152862548828
3.531147705078125,-2.4416981553465127,1.9195856678217649,-17.782792545557022,0.126625046133995,0.0901470482349395,0.1022278890013694
3.551201416015625,-1.4057994023546576,1.412044434224069,-13.192542145848272,-0.1114266589283943,-0.4089201390743255,-0.0311558712273836
3.571254638671875,-0.6964394921872764,1.284189038683474,-11.150154858744145,-0.0618612132966518,-0.5300030708312988,-0.0542449466884136
3.591307373046875,-0.5854152583297342,1.0724800325445831,-6.808713215643167,0.0139256119728088,-0.3178310692310333,-0.1815006136894226
3.6113603515625,0.0011117606341838,1.091371926149726,-1.215444880542159,-0.0725945755839347,-0.2407212853431701,-0.2054690867662429
3.63141357421875,0.4974700675688683,0.9193705879557876,2.771773574799299,-0.0657189860939979,-0.3726630210876465,-0.1811905354261398
3.65146630859375,0.6022374695213512,0.7121553861048072,6.471872539839148,-0.0620735436677932,-0.3330645561218261,-0.1339500844478607
3.671519287109375,0.7556886036872863,0.4487217456866055,8.626133809497952,-0.0524446107447147,-0.3616575300693512,-0.173564538359642
3.691572509765625,0.5562368754446506,0.2479070767940022,10.252816727441548,-0.0798070356249809,-0.1214882060885429,-0.2493667006492614
3.711625244140625,-0.179837292516604,-0.049973881621845,11.376071400064228,-0.1391127407550811,0.4969333410263061,-0.5185884237289429
3.731678466796875,0.512195744872652,-0.462449607592076,12.719056034326552,-0.229087233543396,0.4580429792404175,-0.780723512172699
3.751731201171875,1.6514543711066243,-0.6867088101591915,13.402574889338016,-0.4301142990589142,-0.09143528342247,-0.7940290570259094
3.7717841796875,2.6488971367150542,-0.5145465823151171,11.233404804360866,-0.3884332776069641,-0.2970738112926483,-0.4868199825286865
3.79183837890625,2.119213629414141,-0.8301983396179974,8.798194841989874,-0.0847593545913696,-0.1324006021022796,-0.258660614490509
3.811891357421875,1.356075586503744,-1.6716184766046702,8.79734611620605,-0.0170835796743631,-0.0388782061636447,-0.2901841104030609
3.831943115234375,0.6461977168768644,-2.287620231051743,8.792059700235724,-0.1531819701194763,-0.1486809700727462,-0.5236743688583374
3.851997314453125,1.5621303662732242,-1.6824012980341911,6.423279481583833,-0.1017410978674888,0.0765342563390731,-0.4662684500217438
3.87204931640625,2.470473291192949,-1.1948946983359754,4.262644585239887,0.2052203863859176,0.3434872329235077,-0.1029448956251144
3.892103515625,1.6291959236778315,-1.3696085834242402,3.52107510779798,0.384807676076889,0.5200679302215576,0.1141799241304397
3.912155517578125,0.8011462865263224,-1.3972997234262523,1.8728958128392692,0.4129013121128082,0.7361531257629395,0.1819673031568527
3.932208251953125,0.3708103115536272,-1.561217196951061,-1.0038625695228576,0.4370670318603515,0.5487983822822571,0.2367158532142639
3.952261474609375,0.100567237715749,-1.582750252714753,-5.607399151784182,0.3674573302268982,-0.1849781423807144,0.292065680027008
3.972314453125,-0.3611441461291164,-0.3778916846493259,-12.51583413989544,0.5165863633155823,-0.8150057196617126,0.3828113377094269
3.9923671875,-1.2361980379745363,0.3459265205899253,-17.07336534230709,0.609705924987793,-1.010480523109436,0.3322393596172333
4.01242041015625,-3.0279332786917683,0.5541924005376174,-18.629971684461832,0.2976771891117096,-0.4292912185192108,-0.0155813787132501
4.032473388671875,-2.685159413446486,1.3941820297971368,-19.554464364671706,0.1851061135530471,0.4017122089862823,-0.1882649213075637
4.0525263671875,-0.9384713750712572,1.9694234654411675,-17.552888395905494,0.3877021968364715,0.4973156452178955,-0.0285794250667095
4.072579345703125,-0.4549141340533271,1.4485758832857012,-12.542231148433684,0.4058074057102203,-0.0325115621089935,0.1570088267326355
4.09263232421875,-0.2580641127416864,1.0663299854822457,-9.675164723524452,0.4513209164142608,-0.3916988968849182,0.2967458665370941
4.112685302734375,-1.008665512825176,0.8127890857860446,-6.23941519857347,0.5046182870864868,-0.0516905076801776,0.231059119105339
4.13273828125,-1.6729406651191412,0.8935342089749873,-0.5742582698255777,0.351222425699234,0.4242213368415832,-0.064163751900196
4.152791259765625,-0.501053150220029,1.2138830380529164,4.443903069666027,0.2230008244514465,0.626167356967926,-0.1781645715236663
4.17284423828125,1.6144309007443487,1.5519485794767736,7.012629522079229,0.4096403121948242,0.1318295001983642,0.084415428340435
4.1928974609375,1.849759413532168,1.7312056609526276,9.747764680311084,0.4643118679523468,-0.1940516233444214,0.2578781843185425
4.212950439453125,0.1937505939915776,1.540922158549726,11.966572948682307,0.15181665122509,0.4340532124042511,0.0264942310750484
4.23300341796875,-0.4158019843161106,1.1838139168731867,12.93060619664192,-0.132251888513565,1.0825108289718628,-0.3417254984378814
4.253056396484375,0.4663497568357735,0.9312683848898856,14.091105435031652,-0.3245072364807129,0.8944715857505798,-0.3956425786018371
4.273109375,1.824401831044257,0.8713925928588956,13.752491904336214,-0.3965818285942077,0.2933513224124908,-0.063763752579689
4.293162353515625,1.6325468415409323,0.7986836958050727,12.24450843105316,-0.3075824677944183,0.0068466421216726,0.2890841364860534
4.313215576171875,0.0914887268529273,-0.2047794626040384,11.433535747039317,-0.2980664670467376,-0.2538743615150451,0.2278677076101303
4.333268310546875,-0.9040340487446636,-0.692547672380507,10.606819550448655,-0.4896776378154754,-0.1656984090805053,-0.0252786073833704
4.3533212890625,-0.3208654733631759,-0.7575485523402691,7.965467422285675,-0.5366679430007935,0.0005026077851653,-0.1366765648126602
4.37337451171875,0.2471441113311797,-0.6531503124937414,5.359305849969386,-0.3891237676143646,0.217663824558258,-0.0351794734597206
4.39342724609375,-0.0840227383538149,-1.0175365823492408,2.794612598595023,-0.0994807928800582,0.3295786678791046,-0.0010668009053915
4.413480224609375,-0.2380368766973726,-1.6182082273259757,1.496352072200179,-0.0912957713007927,0.3315227329730987,0.02134888805449
4.433533447265625,0.3290289060745388,-1.8997265366196632,-1.6529852339357136,-0.0420063100755214,0.0156678073108196,0.185000479221344
4.453586181640625,-0.0312259995972737,-1.8323456296555696,-5.282395628768206,0.1319585591554641,-0.5542680025100708,0.436965137720108
4.473639404296875,-2.0873205076776444,-1.8996344744220373,-10.409733966815471,0.480778694152832,-1.1109298467636108,0.279508113861084
4.4936923828125,-2.884351906231045,-1.8427682394705711,-13.516018897688388,0.3933470249176025,-1.2101924419403076,-0.1483361423015594
4.5137451171875,-2.3358839112222194,-0.8917669070415198,-15.633975512778758,-0.0222219042479991,-0.5462816953659058,-0.3916420936584472
4.533798583984375,-1.2776407860837875,0.4483475420793518,-17.509059775573014,0.0339347496628761,0.1851544082164764,-0.3817751109600067
4.553851806640625,0.7373457222670317,1.0909490245625375,-15.77369728720188,0.2792046368122101,0.2359151095151901,-0.1202975511550903
4.573904541015625,1.6694789803579448,1.3221832537740468,-12.670138566422462,0.4082174301147461,-0.1538237035274505,0.2794767618179321
4.593957763671875,0.6842638281598686,0.652746042541787,-10.44962524769902,0.4472605288028717,-0.7501054406166077,0.4515418410301208
4.6140107421875,-1.206803820381686,-0.0820852857515215,-7.750440523770451,0.2820748388767242,-0.7058228850364685,0.2453808784484863
4.6340634765625,-2.10374937217012,-0.1695661469362676,-3.8085581707149743,-0.0007860048208385,-0.0692337602376937,-0.1717765033245086
4.65411572265625,-1.5655074414908885,0.1065455540735274,0.5703296982049941,-0.1496833562850952,0.3053838312625885,-0.4844098687171936
4.674168701171875,-0.8602212835684419,0.6587359306063503,4.902660398611426,-0.2967107594013214,0.1215637400746345,-0.6866024136543274
4.694221435546875,1.1668132438421248,0.9528505404923112,6.673178956037759,-0.2833291590213775,-0.3111518621444702,-0.537772536277771
4.714274658203125,2.298141917327046,0.8918985705971717,7.410510649779439,-0.0630568787455558,-0.5686386227607727,-0.2477189302444458
4.73432763671875,0.7345728234875947,0.5382654576852918,8.89557501976788,0.0274720024317502,-0.1413209438323974,-0.3143213987350464
4.754380615234375,0.4245997694082558,0.0135059993157163,10.450903012549876,-0.207616925239563,0.3891710042953491,-0.5780128836631775
4.77443359375,1.2610676908150316,0.0072394862668588,10.861972707647084,-0.4555484652519226,0.7394771575927734,-0.6371121406555176
4.794486572265625,2.172690221927315,0.3965710680149495,9.7421357345134,-0.316755086183548,0.7754176259040833,-0.4190812706947326
4.81453955078125,2.205677422510832,0.167739150704816,9.378157460936904,-0.0304258950054645,0.4225028157234192,-0.1378958821296692
4.834592529296875,1.2421683445557952,-0.5355498785836622,9.443050496608018,0.0730893164873123,-0.1508557945489883,-0.0837223976850509
4.8546455078125,0.7582672950688749,-0.8297915123827755,8.238788688859342,-0.0220085941255092,-0.2261829972267151,-0.144813060760498
4.874698486328125,0.9571980681773274,-0.5477016137462108,5.472112729460001,-0.0695570707321167,0.2398789972066879,-0.1079959794878959
4.89475146484375,1.0021133877679704,-0.3218764770366251,2.664528421089053,0.1965631395578384,0.7463825345039368,0.033594612032175
4.9148046875,0.4332839380580932,-0.5902613831866532,2.3051573490470645,0.3020944595336914,0.941878616809845,0.0816541910171508
4.934857421875,-0.1958689195861108,-0.872668458013609,1.0474398454427718,0.3565602004528045,0.6517782211303711,0.0164668336510658
4.95491064453125,0.4640236519757658,-0.8135415115885436,-1.76140469212234,0.4098897874355316,0.2044732719659805,0.1659071743488311
4.97496240234375,1.6129571749299765,0.0731933926351368,-5.696566797012091,0.5927688479423523,-0.2968223094940185,0.6820011734962463
4.995015380859375,0.4494963102556765,-0.0236696294009685,-7.712212207663058,1.033515453338623,-0.3690659403800964,0.8393012285232544
5.015068359375,-1.2409814728587865,-0.4645953874491155,-8.157010569360851,1.2354713678359983,-0.3757332861423492,0.6067010760307312
5.035121826171875,-0.7609650097202509,-0.1130742982551455,-7.480850260418653,0.8710031509399414,-0.5094605088233948,0.4775225520133972
5.055174560546875,-0.7999570036765188,0.5011446644283831,-8.544078042101859,0.5734751224517822,-0.3815262615680694,0.4425198137760162
5.0752275390625,-1.4715572381615638,0.2442114919453859,-8.684697057625652,0.2849431931972503,-0.0529337301850318,0.2181751132011413
5.09528076171875,-1.4234404191158712,0.0928757059656083,-7.821778497797251,-0.0819822922348976,0.1698673963546753,-0.0130655374377965
5.11533349609375,-0.367376391582191,-0.1778283638469874,-8.214352166739106,-0.3380571603775024,-0.3568267226219177,-0.1219589114189148
5.13538671875,0.5751136810785159,-0.1599332261942327,-9.954420640844106,-0.225795567035675,-1.0253747701644895,-0.0145377647131681
5.155439697265625,-0.5127794265121222,-0.4293078009687364,-9.437323935654758,-0.1398804187774658,-0.5869697332382202,-0.0694760531187057
5.175492431640625,-0.6538534923270344,-0.531010079729557,-5.654459593644738,-0.3447935283184051,0.290411114692688,-0.2893575429916382
5.195545654296875,-0.1718307674000039,-0.5442660132743418,-1.3287000883221625,-0.4205589294433594,0.419873982667923,-0.4600767195224762
5.2155986328125,1.2614020373359325,0.0570221561655402,2.142325332671404,-0.2505463659763336,-0.2232315391302108,-0.3186778426170349
5.235650634765625,1.3784509383104742,0.7607833695430308,5.149583487603068,-0.2801935374736786,-0.3924517929553985,-0.1100991368293762
5.25570361328125,0.3115271516535431,0.9837626883674412,6.472403285714983,-0.4006572365760803,0.0388677380979061,-0.1920400708913803
5.275756591796875,0.2310501048162579,1.231275925271958,7.594779421937465,-0.4067266285419464,0.4144931733608246,-0.3172972202301025
5.2958095703125,1.3521090209603308,1.5365195396766065,8.117743557855487,-0.2402960211038589,0.4148930609226227,-0.2196680456399917
5.315862548828125,1.0796158757738767,1.6102490850150584,8.76899680455625,-0.026820994913578,0.4910436570644378,-0.0830632820725441
5.33591552734375,0.2333444080322049,1.3013330657079816,9.744592480015754,0.0572308078408241,0.6441158652305603,-0.0750760436058044
5.355968505859375,0.7540865022528916,1.016674120301008,11.698085678136348,-0.3120127618312835,0.4059004485607147,-0.0362156741321086
5.376021484375,0.9245289205670356,0.9515518789839,11.12248476153016,-0.5998961925506592,0.1621326357126236,0.1384836733341217
5.396074462890625,0.6415741487294435,0.6693254214208573,8.833231668579577,-0.5534890294075012,0.0497038997709751,0.3284242153167724
5.41612744140625,-0.1160360524038784,-0.0786535942697897,6.8462599792271845,-0.3613898158073425,-0.0661417096853256,0.2930212914943695
5.4361806640625,-0.2361851844160817,-0.5857086152531207,4.680318793168664,-0.3056306838989258,0.1195000484585762,0.2177135050296783
5.456232421875,0.3855872441206127,-0.665890113209933,1.5607149465173482,-0.1225464791059494,0.549013078212738,0.3357068598270416
5.47628564453125,0.475735753612034,-0.640253567650169,0.4230015404313803,0.0072635249234735,0.7842798233032227,0.5830864906311035
5.49633837890625,-0.3977915862532332,-1.144230679025501,-0.7419628606736659,-0.0742932185530662,0.5305033326148987,0.6287331581115723
5.5163916015625,-0.8882934587772935,-1.2697953332804142,-4.291642131665348,0.0752826929092407,0.1713153719902038,0.5766804814338684
5.53644482421875,-0.5217016051689163,-1.5162139798812568,-6.518567070996761,-0.0088967392221093,-0.1936025619506836,0.4726046919822693
5.556497802734375,-0.4563191420130431,-1.4743186656989156,-10.231938774585725,-0.0684157162904739,-0.6108273267745972,0.3777754306793213
5.57655078125,-0.8751011650532483,-0.8185303328517823,-13.737828588211537,0.0180059913545846,-0.785979151725769,0.3176119327545166
5.596603759765625,-1.2428938823513689,-0.1774784544307738,-15.582306115818024,0.0725515931844711,-0.9309081435203552,0.172918900847435
5.61665673828125,-1.982605018575489,0.1698693676665425,-15.899631359291076,-0.0588846318423748,-0.5117034316062927,-0.0897540003061294
5.636708740234375,-2.3909818213269114,-0.0145020976809784,-15.0081127279222,-0.2222862094640731,0.1007069423794746,-0.4758599102497101
5.65676171875,-1.1536946729414164,-0.0865064997272565,-12.579172931861876,-0.1972555518150329,0.4113681316375732,-0.6896291971206665
5.67681494140625,0.6060723349764943,0.1094875988747924,-8.393281331434846,-0.0167496651411056,0.3411543071269989,-0.6685736179351807
5.69686767578125,0.2855177541933953,0.0990446038588881,-2.6393495561689138,0.0510585233569145,0.396447092294693,-0.7582476139068604
5.716920654296875,0.2547619476574473,0.3976634298289194,3.2237183011204,-0.1767943352460861,0.6916561722755432,-0.9240204095840454
5.7369736328125,1.0251929423213004,0.6445815869171172,7.085602988353371,-0.3931154906749725,0.6101679801940918,-0.9855427145957948
5.757026611328125,1.7059990312427282,0.9244771173145622,9.3295071195364,-0.5372277498245239,0.1947998404502868,-0.8117319941520691
5.777079833984375,2.6076331061735747,0.5311309296302497,9.583083821198343,-0.3732233941555023,-0.1474218666553497,-0.2987770736217499
5.797132568359375,1.27802350179106,-0.2609153739869594,10.944483817595245,-0.1648126542568206,-0.3090631365776062,-0.0800628438591957
5.8171845703125,-0.012405198466964,-0.9446619733396916,13.254176471984383,-0.2346071898937225,-0.3125489354133606,-0.1589179784059524
5.837237548828125,0.3107056061375886,-1.1892289276592434,14.023451702475548,-0.4796677827835083,-0.2898598909378052,-0.1949561387300491
5.857290771484375,0.7588925873603671,-1.1282389638412744,13.244902447682618,-0.6556549072265625,-0.1311852186918258,-0.0921039506793022
5.877343505859375,1.4798165324628352,-1.1839579284537582,11.984854455304143,-0.7933509349822998,-0.0901701971888542,0.0699660629034042
5.897396728515625,1.2691316086746751,-1.37597358841151,9.697848264497518,-0.6974772810935974,-0.2287958562374115,0.1536595374345779
5.91744970703125,1.170205516628921,-1.5676431383453309,7.225669630691408,-0.4477099478244781,-0.3164574205875397,0.1905559450387954
5.93750244140625,1.9145310147807,-1.2554051350086928,4.36579224050343,-0.1515721529722213,-0.0769092291593551,0.4528854191303253
5.9575546875,2.232993445590138,-1.2047792557515202,2.609336110699177,0.0767274722456932,0.2453912049531936,0.8719528913497925
5.977607666015625,0.5588509304005652,-1.9775544571876524,1.2643588413149118,0.1740315705537796,0.392015129327774,0.9401215314865112
5.99766064453125,-0.1749994788303039,-2.444453153143078,-1.3692366813719272,0.2481515556573867,0.3083168566226959,0.8689979910850525
6.017713623046875,0.203881015926972,-2.210662371316552,-5.38673453964293,0.4515089094638824,-0.2308087050914764,1.032687783241272
6.0377666015625,-0.5662318344321101,-1.802150690139085,-10.05671080249548,0.8764859437942505,-0.9172852635383606,1.138874888420105
6.05781982421875,-2.512329150147736,-1.886652827773988,-13.610538425338268,0.9455897212028505,-1.3366235494613647,0.8275775909423828
6.077872802734375,-3.5337826136797665,-0.6445891126364469,-17.840909218961,1.0779691934585571,-0.760291337966919,0.4471625983715057
6.09792578125,-3.671815996624529,0.7770670534111559,-17.994990358126163,1.2140603065490725,0.2513805031776428,0.1563832908868789
6.117977783203125,-3.0424095478117463,0.8363780511662363,-14.403209728986024,1.0734546184539795,0.4955278038978576,-0.1240450069308281
6.13803076171875,-1.9998801246337592,1.3358268714621662,-12.53768824430704,1.1504191160202026,0.2167457640171051,-0.255495935678482
6.158083740234375,-0.9826403332740068,1.8311106810331343,-8.989891133800148,1.1908092498779297,-0.084654688835144,-0.2356035262346267
6.178136962890625,-2.154199456468969,1.9224913261353969,-4.779859363850951,0.9572911262512208,0.0792488455772399,-0.577592134475708
6.198189697265625,-2.233171432505548,2.6396710432082413,0.0122270288884639,0.4278987944126129,0.378124475479126,-0.9138557314872742
6.21824267578125,-0.3303632964834571,3.190040487924218,3.689251407811045,0.0345022194087505,0.1101855114102363,-0.8721794486045837
6.2382958984375,0.8813755691476166,3.212840933275223,5.801127241683006,-0.0452561937272548,-0.480932354927063,-0.6648231744766235
6.258347900390625,0.1274599299496039,2.646137024351954,7.202555881607532,-0.1403056532144546,-0.5782473683357239,-0.6402537226676941
6.278400634765625,0.0252395821314305,1.9865518565051257,8.875131366676092,-0.4642308950424194,-0.4034742414951324,-0.633162796497345
6.298453857421875,-0.0843733418897725,1.032986445741728,9.492894431707262,-0.8607256412506104,-0.1071098297834396,-0.6847574710845947
6.3185068359375,-0.2301125682378187,0.9211879395760596,7.536759779167175,-0.7737991213798523,0.3540332019329071,-0.7753037214279175
6.3385595703125,1.1750888316910713,0.7921645962346344,7.206023849979043,-0.5089083313941956,0.5031772255897522,-0.584407389163971
6.35861279296875,1.5646125384777785,0.1679393494520336,8.54519681699872,-0.4044651389122009,0.1901311874389648,-0.3609860241413116
6.378664794921875,1.1638186651360245,-0.3213460964869707,8.081629457423091,-0.2947738468647003,-0.0274101234972476,-0.2004746198654174
6.3987177734375,0.6089267745595425,-0.4823139994911849,6.923558322963118,-0.1324139982461929,0.0978770926594734,-0.1521685123443603
6.418770751953125,0.4391907144164666,-0.674230363792926,6.96803634711504,-0.1417507976293563,0.2090695351362228,-0.1127896830439567
6.43882373046875,0.7472540989495814,-0.3065099080134183,5.96850450027287,-0.0365005731582641,0.2429909110069275,0.010333327576518
6.45887646484375,0.9090893593728542,0.0353369055148214,4.262803575193882,0.2488859295845031,0.3276172280311584,0.2197754830121994
6.4789296875,0.3752531893718987,-0.26529695007205,3.3086317960351703,0.4229064285755157,0.3606988787651062,0.2779833972454071
6.498981689453125,-0.3384998411878943,-1.0479369813099504,2.268731698447466,0.3037680089473724,0.2810655832290649,0.1942483782768249
6.51903466796875,-0.3790859724678099,-0.938999782859534,-1.2143395496487617,0.3403372168540954,0.2448896020650863,0.1492760330438614
6.539087646484375,0.663400342220813,-0.3705385088749229,-5.1182116132617,0.4980314075946808,0.2412769645452499,0.2663221061229706
6.559140869140625,2.0031199833378195,-0.2963753944247961,-7.453181332248449,0.4754344522953033,-0.2586142420768738,0.4618943333625793
6.57919384765625,1.2758913120679556,-0.5083860138587654,-9.980422512584925,0.2708500921726227,-0.8643532395362854,0.4149652123451233
6.59924658203125,-0.1664625914303585,-0.1959297646615654,-13.68075353281498,0.1937616914510727,-0.8361316323280334,0.1818757951259613
6.619298828125,0.5216382210765034,0.6361053619295358,-16.32844947704673,0.3704482018947601,-0.3073466718196869,0.2418108582496643
6.639351806640625,0.3009135127784684,0.263504805958271,-14.4523037225008,0.3229633569717407,0.1551234722137451,0.2435130327939987
6.65940478515625,0.1780394493144005,-0.44555911693722,-11.625026287144422,0.1218137368559837,0.1880960911512375,0.1651711016893386
6.679457763671875,0.2759174936119467,-0.5338284981511533,-9.92168390789032,0.0696121901273727,0.0166487488895654,0.155586764216423
6.6995107421875,0.1345444448504597,-0.4763029225081205,-7.7964681154519315,0.1078070327639579,-0.1357486099004745,0.1117641404271125
6.719563720703125,-0.910100582242012,-0.3540625903703272,-5.049779882070422,0.1354548037052154,0.0010919519700109,-0.1279096156358719
6.73961572265625,-1.1567483614236116,0.2257614968888461,-1.282656130027771,0.1077880859375,0.3377723097801208,-0.3602108955383301
6.759668701171875,-1.554961789818108,0.5516358113899826,3.516140574005246,0.0038716776762157,0.5070576667785645,-0.5766042470932007
6.7797216796875,-1.2779798087798058,0.8351726208992302,7.241442369362711,-0.0390718467533588,0.2843706011772156,-0.6337761282920837
6.79977490234375,-1.1770425961073487,1.4354749941721558,9.14665873557031,-0.1439487338066101,-0.0732786431908607,-0.6707107424736023
6.819827880859375,-0.514441514505446,1.3649544740080832,8.833629143464565,-0.1274887919425964,-0.0042167278006672,-0.5930302739143372
6.839881103515625,-0.6501718081396073,1.0536198492519555,9.560341828036307,-0.1548749506473541,0.3869303166866302,-0.5407572388648987
6.85993310546875,-0.8629628373615443,0.7424721253700554,10.93824229285717,-0.2797958254814148,0.569463849067688,-0.5383238196372986
6.87998583984375,0.128057786244899,0.6512254819110036,10.944781923758985,-0.2517048418521881,0.1997136622667312,-0.384867399930954
6.900038818359375,0.3929237975537776,0.5307558127075434,10.215721799278258,-0.1541614979505539,-0.2075741440057754,-0.1729938238859176
6.920092041015625,0.3872393221765756,0.4035919065624475,9.610478608602286,-0.1730461716651916,-0.1886427849531173,0.0781802833080291
6.940144775390625,-0.1435307382520288,0.0858445652198046,8.31848474138677,-0.0712044835090637,-0.0831245929002761,0.1104407757520675
6.96019677734375,-0.3624172348048537,-0.4419503518555313,7.244606970873475,-0.0705571472644805,-0.1314231902360916,-0.0632055252790451
6.98025,0.4665723866105079,-0.100656130708754,5.874346207150817,-0.0214104615151882,-0.2229928523302078,0.0580091774463653
7.000302734375,0.6551034923881291,-0.0697162911090999,3.4565380459576844,0.2306868582963943,-0.1870696246623993,0.3030992448329925
7.02035595703125,-0.6250245804667472,-0.9065583795905112,1.968610687753558,0.3343476057052612,-0.031820610165596,0.2129292637109756
7.040408935546875,-0.1985235440144315,-1.2096603057913482,-0.1706862370073795,0.1278543919324875,-0.0417402498424053,0.1167369410395622
7.0604609375,1.3162332593284547,-0.3940631768472492,-4.264645988190174,0.3388284742832184,-0.2586935460567474,0.3254429399967193
7.080513916015625,1.0150912350237369,-0.5760168039306998,-6.096228378388285,0.4525407254695892,-0.3684139549732208,0.4132288992404938
7.10056689453125,0.5774327351432293,-0.9529002979181708,-8.17320299474895,0.2919881939888,-0.2726733386516571,0.3717641830444336
7.120619873046875,0.8616730167467147,-0.3043456426516175,-10.284961924242973,0.3416792154312134,-0.3164790570735931,0.4076266884803772
7.1406728515625,0.6966440748486668,0.4111956595644354,-10.902411101019382,0.5576035976409912,-0.7453649640083313,0.5148937106132507
7.160724853515625,-0.5908775423236191,0.2140628757886588,-11.297674155175685,0.5849173665046692,-0.8609737753868103,0.3639189898967743
7.18077783203125,-1.1674591405302286,-0.3405803007237613,-10.598335799741744,0.2088893204927444,-0.4602275192737579,0.0934294834733009
7.2008310546875,-0.8753050170622766,-0.3573749297887086,-10.747304710459709,-0.0937090367078781,-0.1784315556287765,-0.1796282678842544
7.2208837890625,-0.6033660351598635,0.1554455593861639,-9.458684703591466,-0.2114438861608505,-0.054405327886343,-0.3249594271183014
7.240936767578125,-0.6899221461825072,0.5702580942735076,-6.639823214402795,-0.2299181818962097,0.2714635729789734,-0.4361560344696045
7.260989990234375,-0.3403904041748494,0.4562907927013933,-2.486786420351266,-0.404166966676712,0.4022279679775238,-0.5293221473693848
7.281041748046875,0.0062689972668886,0.4354389972001314,-0.0051332712352275,-0.624030351638794,-0.2307882905006408,-0.71169513463974
7.3010947265625,1.4383670623518523,1.2384607222095132,-0.5210258613318205,-0.3050040900707245,-0.3941528499126434,-0.3112740516662597
7.32114794921875,0.5235707600416615,1.079279045034945,1.452233529010415,-0.0296678263694047,0.0657262653112411,-0.0900948271155357
7.34120068359375,-0.6563207592234015,0.071866089554131,5.979394727599621,-0.3527626395225525,0.4948628842830658,-0.427349179983139
7.361252685546875,-0.2544727737188339,0.3573535947397351,7.189013678467274,-0.6186758279800415,0.9371959567070008,-0.6314247846603394
7.381305908203125,1.7239878385283052,1.1007350900396704,6.770645643055438,-0.1896653324365615,1.1189206838607788,-0.1570998430252075
7.40135888671875,1.222643852135539,1.0481360110133886,8.747278309223056,0.2947151362895965,0.8181216716766357,0.2531902492046356
7.42141162109375,-0.1366057795607484,0.2740739846371114,10.937994455575945,0.3491942882537842,0.2499412298202514,0.2615145742893219
7.44146484375,-0.6574702215194702,0.0158873049616813,11.464687256628274,-0.079046756029129,0.04287064447999,0.159099742770195
7.461516845703125,-0.295853799969796,0.301663710091263,8.961639437305926,-0.0826347544789314,0.0706496909260749,0.3218395709991455
7.48156982421875,-0.7946225838460028,0.1439849848255515,6.729215900558233,0.2095391005277633,0.0006670556031167,0.3157563507556915
7.501622802734375,-1.204890241845325,-0.0973857307359576,5.689197729548812,0.3139510750770569,0.1856556832790374,0.1546339243650436
7.52167578125,-0.5432266237566247,-0.0736671476267278,4.968974406996369,0.2496029585599899,0.4643568694591522,0.1738729029893875
7.541727783203125,0.1191645414216443,0.2635394388802349,3.857719384247064,0.4187876284122467,0.5192825198173523,0.4738831520080566
7.561780517578125,-1.0909713825248182,-0.039898002885282,2.6640350846141576,0.5311524271965027,0.2829653918743133,0.6014766097068787
7.581833251953125,-1.775450753131509,-0.7346721191436052,-0.182468444737792,0.54007488489151,-0.0903426259756088,0.5284220576286316
7.60188623046875,-1.18469391457811,-1.0440838130131362,-3.616772447055578,0.6070992946624756,-0.3067887127399444,0.4007326662540436
7.621939453125,-0.4089639549896121,-1.5264967428341507,-4.154875699916482,0.1171185821294784,-0.5375171303749084,0.3068046867847442
7.641991455078125,-0.9393738038036972,-1.470821909624338,-6.97323859193325,-0.3326556086540222,-0.6833636164665222,0.1242717280983924
7.662044189453125,-0.2643486363712698,-0.5933654136165977,-11.124882470321657,-0.4744080901145935,-1.2757028341293335,-0.0187451988458633
7.682097412109375,0.5782711587287486,0.3936901057511567,-15.437314292037486,-0.2577697038650512,-1.3447303771972656,0.0868048593401908
7.702150146484375,0.1609602676870301,0.2437466509126126,-15.6816771751523,-0.2705894410610199,-0.4746240675449371,0.148215040564537
7.7222021484375,-1.147377160357684,-0.7201597557969391,-12.11518647009134,-0.5654096007347107,0.4346140325069427,-0.1164042055606842
7.74225537109375,-1.5030102149151263,-1.2984854211919008,-7.631684380486607,-0.8564863801002502,0.6738504767417908,-0.5876976847648621
7.762308349609375,-0.1570830243948847,-0.7826850394234061,-4.70632358751893,-0.7345098257064819,0.1406072676181793,-0.8832487463951111
7.782361083984375,1.140270470157638,0.2468953242018818,-1.7175480147391555,-0.5205814242362976,-0.3762679100036621,-0.6326909065246582
7.802414306640625,0.2700711422039196,0.246288882741332,0.3024561756432056,-0.2716998755931854,-0.4091576635837555,-0.494022935628891
7.82246630859375,-1.050945807737112,-0.2652672855861485,3.9703170049011702,-0.4632862210273742,0.0680262222886085,-0.6704869866371155
7.842519287109375,-0.3461703027505427,-0.0389898750644177,5.610840232148767,-0.6340292096138,0.6625933051109314,-0.7829648852348328
7.862572265625,0.792501646169275,0.1528099501855671,6.393624932554364,-0.450116902589798,0.7809216976165771,-0.6291179656982422
7.882625244140625,1.5468611932098864,0.0825911163818091,7.310266314741969,-0.0129558099433779,0.4731906056404114,-0.2593175768852234
7.90267724609375,1.358693952308595,-0.0044325756199657,8.71368232909143,0.3285478949546814,0.3131944239139557,0.0738716498017311
7.92273046875,0.9659631200436504,-0.2322888528309762,10.539414824217555,0.2860171198844909,0.2257304787635803,0.2434668987989425
7.942783203125,0.0859824758531525,-0.4786573766797781,10.48010338807106,0.1275394558906555,0.1582085192203521,0.1917503327131271
7.962836181640625,-0.0144375445447862,-0.3827359463427215,8.978737287101149,0.1185123473405838,0.1344990283250808,0.2473779618740081
7.98288818359375,-0.4713853033175691,-0.5156381769441067,7.609096701103448,0.3155314326286316,0.1860021203756332,0.2841418385505676
8.002941162109375,-0.9335999696426092,-0.6149294490404427,7.43577836202681,0.5339974761009216,0.3852081596851349,0.2160373032093048
8.022994140625,-0.6811306447006762,-0.638768808985129,7.683055671283602,0.5329971313476562,0.4577906727790832,0.1203758269548416
8.043047607421874,-0.0794154089551419,-0.7152787057571113,7.289271457508206,0.3012369275093078,0.3887058198451996,0.1455975025892257
8.063099365234375,0.126783784253709,-1.2198185655817388,4.286363899001479,0.4314480423927307,-0.1228301748633384,0.3175625205039978
8.083152099609375,-0.4447822508132085,-1.5943758085787296,0.4199333850324153,0.7054257392883301,-0.8229683041572571,0.3652376234531402
8.103205322265625,-0.6476758996706455,-1.421663180310279,-3.765344467410445,0.6518492698669434,-0.8410096168518066,0.3635894656181335
8.123258544921875,-1.697227988027036,-1.5376676867984234,-7.039891038492321,0.2636682391166687,-0.3101911842823028,0.1538351774215698
8.143310302734376,-1.5289625484257936,-1.8493889727845787,-9.544722234100105,-0.1760194003582,-0.2374090403318405,-0.179219976067543
8.163363037109375,-0.2674958483558148,-0.7654173860192298,-12.887932591563462,-0.3613789677619934,-0.4297695755958557,-0.403195708990097
8.18341650390625,2.9787770335957404,0.9782024969570338,-16.072290942198038,-0.1609427034854889,-0.1797594577074051,0.1108137071132659
8.203469482421875,2.926974073383212,0.9191153710857032,-16.766769582641125,0.4340036511421203,-0.1977523118257522,0.748322069644928
8.223521240234374,-0.1909512455966323,-0.0042798692762851,-12.372613417440652,0.5821998119354248,-0.5123313665390015,0.6992692947387695
8.24357421875,-2.210806163701415,-0.8445840078450739,-8.050673178145288,0.0047119911760091,-0.3098267316818237,0.2130429148674011
8.26362744140625,-2.699536606106162,-1.0035423976577815,-6.036273968163132,-0.562575101852417,0.2149831652641296,-0.377452403306961
8.283680419921875,-0.5395449030365794,-0.3344032195240259,-4.326382605656981,-0.5447831749916077,0.2234974503517151,-0.5239400267601013
8.303732177734375,0.8307626224372535,0.2088109466098248,-1.867081573602557,-0.2545468509197235,-0.0897402763366699,-0.35699462890625
8.323785400390625,0.5639572405636311,0.2907625229790807,0.996176106673479,-0.166464015841484,-0.2521141767501831,-0.355810672044754
8.343838623046874,0.2416221330393105,0.3727130764350295,3.154403941875696,-0.2586307227611542,0.0445485785603523,-0.3826915323734283
8.363891357421876,-0.2645110603913664,0.4213612258784472,4.686493682411313,-0.2481672465801239,0.5405003428459167,-0.4023735523223877
8.383943115234375,-0.199572432012856,0.2079208659023046,6.498242660370469,-0.1239891648292541,0.768944263458252,-0.2721867263317108
8.403996337890625,0.3718850281130522,0.4101126866333186,6.710445149114728,0.2801729440689087,0.8290896415710449,-0.094137892127037
8.424049560546875,-0.3972123615931719,0.7081924007579684,8.958938361653685,0.4799621701240539,1.13029146194458,0.0299888998270034
8.444102294921874,-1.1004357417669146,0.397821652597934,11.364718815922735,0.4021981358528137,0.7117414474487305,-0.0387664437294006
8.464154296875,-0.6537362956881523,0.4128334898993372,11.29065287823677,0.16598442196846,0.0295559093356132,-0.0471643730998039
8.48420751953125,-0.5737668330468237,0.7908188076488674,8.503349725872278,0.1407784819602966,0.1093087047338485,0.0375522971153259
8.504260498046875,-0.3853282278582453,0.9880947992876172,6.272983706176281,0.4368538558483124,0.2178841680288314,0.1113561987876892
8.5243134765625,-0.7812854748237877,0.647647623424232,6.199124689239263,0.5507532954216003,-0.2241854518651962,0.0646919757127761
8.544364501953124,-0.5392991115819662,0.6391773167207837,4.235792234149575,0.5008746385574341,-0.3615621328353882,0.160124585032463
8.56441748046875,-0.915468977407366,0.3391984909765422,0.5721569136321545,0.6573431491851807,0.2453035116195678,0.2579745948314667
8.584470703125,-1.7616991450242696,-0.3239861626669764,0.3588268821626901,0.647763729095459,0.4601666033267975,0.053823072463274
8.604522705078125,-0.8313930292952805,-0.1763333029836416,0.4719026417225599,0.3730067908763885,0.4089551270008087,0.0062067587859928
8.624575439453125,0.068219476680085,-0.097329032112658,-1.6367606598436832,0.3769015669822693,0.3401756584644317,0.0735906884074211
8.644628662109374,1.5778966752037404,-0.4843320613153278,-2.893609563919901,0.3066847622394562,-0.09210716933012,0.1833661049604416
8.664681640625,1.8793420663692053,-0.8690181918777525,-4.482963744944334,0.0265135057270526,-0.6182100176811218,0.2096771150827407
8.6847333984375,1.7149107981033622,-0.5688248465999961,-8.099229996043443,-0.1168276518583297,-0.8330203890800476,0.2338383644819259
8.704786376953125,1.6709857316590844,-0.01594575715065,-11.133849036109448,-0.0915261954069137,-0.8098656535148621,0.4796962440013885
8.72483984375,1.1943256662763655,-0.4198101970441639,-11.068441036653518,-0.0855993330478668,-0.8412868976593018,0.4534994959831238
8.744892578125,0.3341913303390145,-1.6072246226273477,-9.228843682304024,-0.6582682132720947,-0.5494450330734253,0.1284393966197967
8.7649443359375,1.5336759868137535,-1.2167376968316732,-10.192822569727896,-1.0281031131744385,-0.0060157096013426,0.096971645951271
8.784997802734376,2.001946994035691,-0.583418604619801,-9.998889897167684,-0.6996832489967346,0.0600577592849731,0.274863988161087
8.80505078125,0.9201184106484056,-0.6480262474782764,-5.741817559102177,-0.417191743850708,-0.2748115658760071,0.1986055374145507
8.8251025390625,-0.9951226520977914,-0.7048002741016447,-0.7910539315789937,-0.7213773131370544,-0.0642822459340095,-0.2283118516206741
8.84515576171875,0.4638961531385779,0.496585832080245,1.1033464415818452,-0.7096976041793823,0.1773276031017303,-0.0819092243909835
8.865208740234374,0.7354651692174374,1.0377682001255453,3.1735791824668644,-0.1931803375482559,0.0316179208457469,0.2859581410884857
8.88526171875,-1.0336450557809322,0.6464945078663528,7.405829798486828,-0.1466953158378601,-0.0947161316871643,0.1726770550012588
8.905313720703125,-2.230382970830798,0.1382134156867861,9.95825627348423,-0.7029275894165039,0.2660198211669922,-0.2589319348335266
8.92536669921875,-0.7301500386092812,0.7198565350666641,7.811712446334957,-0.753372848033905,0.7824612855911255,-0.2811052799224853
8.945419677734375,0.4173960851071402,0.8962129266649485,6.9587021170586345,-0.2798648774623871,0.673148512840271,0.0132445786148309
8.965471923828124,0.3579949248505756,0.6584010726287961,8.25783475011289,0.0560217015445232,0.2721705138683319,0.3191763460636139
8.985524658203126,-0.4834810339765623,0.1396064774803817,8.81937031648755,0.1034367978572845,0.0999503284692764,0.4270155429840088
9.00557763671875,-1.248069677554071,-0.1745165358852595,8.165560955563187,0.0680442750453949,0.3985795676708221,0.4570996165275574
9.025630859375,-1.7472224375128744,-0.2832772817902266,6.727763948184252,0.2275893688201904,0.8067401051521301,0.404870867729187
9.045682861328125,-1.9720000379309055,-0.3647761459559202,7.848934800270199,0.283368706703186,0.8413991928100586,0.3712458312511444
9.065735595703124,-1.362043554997444,-0.7702467058718204,7.1681538457900285,0.3697971701622009,0.1478166878223419,0.2543869912624359
9.085788818359376,-1.2570251374259591,-1.0795650223694742,5.318653521585464,0.196072906255722,-0.0166803319007158,0.2620263993740082
9.1058408203125,-1.0915766549415886,-1.117645308308303,1.085008236336708,0.1581888347864151,-0.0467192158102989,0.2000685781240463
9.125893798828123,-0.7265756872538477,-1.1100519305698573,-2.611327576777339,0.2300662994384765,-0.0273674372583627,0.1028434038162231
