timestamp,acc_x,acc_y,acc_z,gyro_x,gyro_y,gyro_z
0.12619482421875,0.1505432838952168,0.4239975657314062,11.584625303173064,0.1659717410802841,0.3905360400676727,0.0178275778889656
0.14624755859375,0.2941183727456256,0.6637149611279368,10.55975735502243,0.1330695003271103,0.3456107676029205,0.096481867134571
0.1662998046875,-0.1897115842664614,0.5999431845717131,10.131401009559632,0.1796052157878875,0.3222506642341614,0.0672305822372436
0.186352783203125,-0.6072262542519719,0.4228473727829754,9.888530995351076,0.1433228999376297,0.3042606711387634,-0.0978713408112526
0.20640576171875,0.2185598218817263,0.640708910202235,8.760898838296532,-0.0048923110589385,0.2925176918506622,-0.1183266341686248
0.226457763671875,1.3013815810248257,1.1656877469435334,6.14334727243781,0.1434176564216613,0.4931125938892364,0.2673157453536987
0.2465107421875,1.333075380796939,0.9166274997927248,4.827883682307601,0.4106984138488769,0.4532062113285064,0.624992311000824
0.266563720703125,-0.5017943605087697,-0.2132426454469561,4.069565899160504,0.4765903353691101,0.2700799405574798,0.5250372886657715
0.28661572265625,-0.2928118019253947,-0.446910385415703,1.500496916919947,0.3294528722763061,0.1955393403768539,0.42568239569664
0.306668701171875,1.1089655235726386,-0.2986734422340989,-2.530186586138606,0.0822097584605217,0.0195462647825479,0.6827467083930969
0.3267216796875,0.4700486113537103,-0.3788265908792614,-7.203617373359203,0.0536916479468345,-0.3820798397064209,0.8814501166343689
0.34677490234375,-1.5420236900508404,-0.5548661716133356,-10.684405478954314,-0.1286489516496658,-0.8488476276397705,0.5833753943443298
0.366826904296875,-1.5523774724133312,-0.3968240198627114,-14.91527311618328,-0.5180222392082214,-1.288135051727295,0.2458721697330474
0.386879638671875,-0.9667530283123256,0.4614572355538606,-20.690290934097767,-0.5097420811653137,-0.5689095854759216,0.2791056334972381
0.4069326171875,-0.3953054685259237,-0.0239491769947111,-20.25350812107325,-0.4169454872608185,0.1453562974929809,0.3952023088932037
0.42698583984375,-0.2357114842234179,-1.2657076255753636,-15.839205824422836,-0.4625218510627746,0.0198258385062217,0.2997752130031585
0.447037841796875,-0.2017941997155547,-1.9120313069194557,-12.117190211129188,-0.4738861620426178,-0.2330688238143921,0.1062899455428123
0.467090576171875,-0.4870976901037618,-1.7447488870061931,-8.78181010890007,-0.3273386061191559,0.2465167343616485,-0.0177248250693082
0.487143798828125,-0.4460728751456365,-1.6331006760314106,-2.9934599312037227,-0.2621376514434814,0.6583159565925598,-0.1183612644672393
0.50719580078125,0.13724921029713,-1.561874784076959,2.865650128370523,-0.2770165801048279,0.3733502924442291,-0.1340924650430679
0.52724853515625,-0.1929577265808358,-1.4699626624464988,5.899957033747434,-0.0366157740354537,0.0111702531576156,-0.0884071737527847
0.5473017578125,-0.5568333435004577,-1.4003762082621454,8.157114029735327,0.1430254280567169,-0.1394598484039306,-0.1409064084291458
0.567354736328125,-0.1345599894794635,-0.916934300719574,9.612188919651508,0.1746124923229217,0.0950495451688766,-0.1565200984477996
0.58740673828125,-0.4270988562149926,-0.5209582029230893,10.64021211696267,0.2296034693717956,0.6811304092407227,-0.1794471442699432
0.607459716796875,-0.5848359240718185,-0.3564707474905997,11.69224162828326,0.3464409410953522,0.9527552723884584,-0.2314635217189788
0.6275126953125,0.0931442937739193,-0.2871804997738451,12.242612242043018,0.3861854374408722,0.5294252634048462,-0.2824617624282837
0.647565673828125,1.0760201163042336,0.0782132666237652,12.538222497314214,0.1920703202486038,-0.0307685621082782,-0.0268891379237175
0.667616943359375,1.0697433010570705,0.4446253432184457,11.077992124330995,0.1335199922323227,-0.3746064603328705,0.2667567729949951
0.687669921875,-0.3555459607958793,0.0988267233245074,9.090216132858394,0.2528662979602813,-0.4146817326545715,0.2001868784427642
0.707722900390625,-0.8495675684113055,-0.0280865690603852,7.083547224867344,0.305035799741745,0.0046388013288378,-0.0283176768571138
0.72777587890625,0.1646199227057397,0.1590396383553743,5.9205550006181,0.1510124206542968,0.5196709632873535,0.0687776729464531
0.747827880859375,0.9993236109189688,0.1348407243832945,3.884754690688848,0.2781559526920318,0.5482898950576782,0.3715112209320068
0.767880859375,0.4309877168796956,-0.4015396502077579,1.5148726482748984,0.5723127722740173,0.1383424550294876,0.4718121886253357
0.787933837890625,0.051847456941381,-0.753362644957751,-0.7406471018999815,0.5527397990226746,-0.230670154094696,0.5049537420272827
0.807987060546875,0.0598769610747694,-0.7852830930925905,-4.735620993673801,0.6246700286865234,-0.2996849119663238,0.6115807890892029
0.828039794921875,-0.5534277363080531,-0.9958270009748638,-6.1030865737199775,0.4568327665328979,-0.2708361744880676,0.551419734954834
0.848091796875,-0.5914766772605479,-0.7814414691030979,-7.80795864675939,0.171423465013504,-0.7257481217384338,0.3323000967502594
0.868144775390625,-0.158415368977189,0.0082929043099284,-11.803443410664796,0.2073286473751068,-1.0969858169555664,0.3478420972824096
0.888197998046875,-0.1408409511787816,0.2700451675124466,-14.64041221895218,0.288327157497406,-0.8549804091453552,0.4181985259056091
0.908250732421875,-2.322575078446418,-0.2658132290311157,-15.24459508692026,0.3481172323226928,0.0049874703399837,-0.0033596220891922
0.928302734375,-1.4515636669248342,-0.881642549520731,-12.711818484288454,0.1617493778467178,0.6256709098815918,-0.3601730167865753
0.94835595703125,0.3452511420790106,-0.6498243829414249,-10.20471642113924,-0.0866223946213722,0.7312219142913818,-0.3039909601211548
0.968408935546875,1.9531407314211129,-1.124406473006308,-8.770081092661618,-0.1083024367690086,0.3766320943832397,-0.0240426212549209
0.9884619140625,1.844024377011508,-1.4357304302379488,-6.003806115278601,-0.2072616964578628,0.047795720398426,0.0491348765790462
1.008514892578125,1.175593639408052,-0.7481853884503245,-3.679380586659908,-0.2128171175718307,0.2712524533271789,0.0924368649721145
1.02856689453125,0.2284685638904571,-0.3805710964590311,-0.5643950474590063,-0.1138743311166763,0.3782363831996918,0.0220996402204036
1.048619873046875,-0.4359492117445915,-0.1855523822277784,4.32716878759861,-0.2652597725391388,0.523030161857605,0.0085213873535394
1.0686728515625,-0.5246161409087479,0.5705892259240151,7.201033202084899,-0.3990858197212219,0.4335269033908844,0.0109681244939565
1.088725830078125,-0.4558423182815313,0.7111331303849816,8.642721371683479,-0.3515876531600952,0.1626503020524978,0.020813699811697
1.10877880859375,-1.1557752055425197,0.9278075038462876,8.690397899615764,-0.049597218632698,0.2572944462299347,-0.0719253495335578
1.128831787109375,-1.660241196413338,1.0878306002810596,9.788568984386323,0.2398273944854736,0.695178210735321,-0.1782330572605133
1.1488837890625,-0.5664323985055089,1.301244218380749,12.214105109483002,0.126015156507492,0.633513331413269,-0.1788299828767776
1.16893701171875,-0.4736640984371304,1.0019839161694049,13.253449326753616,-0.1933880746364593,0.1694205105304718,-0.1568845510482788
1.18898974609375,-0.3360861311096698,1.046856638727337,10.85657289443016,-0.178612619638443,-0.2442833632230758,-0.1374260932207107
1.209042724609375,-0.0638454263143241,1.1143927362531425,9.103854197588564,-0.1496871560811996,-0.0629172921180725,-0.0077382172457873
1.229095947265625,-0.1573143489327281,0.7446047534845769,8.442219842126965,-0.2111254036426544,0.2168964296579361,0.0158031769096851
1.24914794921875,0.0735087787272408,0.7882572865977883,6.467346586847305,-0.0187910851091146,0.3274275064468384,0.054147120565176
1.26920068359375,1.180146918798238,1.216560148307681,4.634325103756785,0.2544425725936889,0.2611072957515716,0.3924740254878998
1.28925390625,1.102611332240328,0.8986576894685625,3.429393433922529,0.2387458980083465,0.2081138342618942,0.7365862131118774
1.309306640625,0.2214595619112253,0.317628171942383,1.0671318033844233,0.1886681914329528,0.0494931526482105,0.8837145566940308
1.329359619140625,-0.4757494168112054,0.0374672686070203,-2.9246330632150173,0.2245498597621917,-0.3144057989120483,0.8504858613014221
1.349412841796875,-0.5153294032558798,0.506152263457328,-7.868920772722363,0.335752010345459,-0.6028689742088318,0.8802333474159241
1.36946484375,-0.6976875194869935,0.4927765029251575,-10.81546697705984,0.1460903882980346,-0.842872679233551,0.9034439921379088
1.389517578125,-1.9046173774011432,0.2873760954111814,-13.674328468203544,-0.3022536337375641,-0.8800225853919983,0.6660985350608826
1.40957080078125,-2.1516076864100997,0.4530361748196184,-16.621459778952598,-0.6047250032424927,-0.7961392402648926,0.4602052271366119
1.429623779296875,-1.833933629499376,0.7878034053504467,-18.42189241312742,-0.5070307850837708,-0.5758491158485413,0.3697592914104461
1.449676513671875,-1.4648027954652905,0.4125476586952805,-15.374312184679509,-0.710831880569458,-0.1479628384113311,0.2612879872322082
1.469729736328125,-0.980393577260524,-0.31546105703637,-11.694976021683216,-0.9784889221191406,0.0668444335460662,0.1032441332936286
1.48978173828125,-0.3724843457130715,-0.8016904764056205,-8.299283781832456,-0.975449800491333,-0.190044105052948,-0.0499091260135173
1.509834716796875,0.1878076503412798,-0.9253120337687432,-3.526774780744314,-0.994373619556427,-0.4588503241539001,-0.1412899494171142
1.5298876953125,-0.2235303768359124,-0.8865070137519389,1.0713234098553657,-1.1282403469085691,-0.1636785268783569,-0.2904950082302093
1.54994091796875,-0.8389726707693189,-1.1402009120527654,5.388168956360221,-1.3653748035430908,0.4256924986839294,-0.6712653636932373
1.569994140625,0.6309844387192278,-0.6829749573931098,7.97694801672101,-1.4330878257751465,0.5645214915275574,-0.7843618392944336
1.590046875,2.2653021623902023,-0.3016522205828689,8.416071255391836,-0.9489580392837524,0.0919835641980171,-0.3786094486713409
1.610099853515625,0.8229678038425743,-1.1322760373376308,9.7066850664258,-0.3767893314361572,-0.3486657440662384,-0.2855110466480255
1.630152099609375,-0.1404121313074603,-1.8619420187570157,12.510900775146483,-0.5822269320487976,0.0289459098130464,-0.5647807121276855
1.650204833984375,0.4684793892756104,-2.1573424306698143,11.885419098562002,-0.7638925909996033,0.4900402724742889,-0.8424559831619263
1.670258056640625,2.1539722235843537,-2.166775006534159,10.380646988540889,-0.6666064858436584,0.4390072822570801,-0.7676922082901001
1.69031103515625,3.887082549114525,-1.922112263689935,9.272554813736676,-0.4644916653633117,0.0896126553416252,-0.3092826008796692
1.71036376953125,3.280449949906766,-2.2940032100871206,7.979264476969837,-0.1787623912096023,-0.3063751459121704,0.0213230326771736
1.7304169921875,2.304741461722553,-2.3207414332784717,6.74466247601509,0.0681385695934295,-0.1497514098882675,0.1106683015823364
1.750469970703125,1.5962654217176138,-2.152780091190338,6.179412857553363,0.1517597734928131,0.5092043280601501,0.1076764687895774
1.77052197265625,1.2510988161168992,-2.1353796051867304,6.304796310022473,0.1310654431581497,0.9215908050537108,0.1099480465054512
1.790574951171875,1.5850067994698882,-1.692715625169128,5.654053350931406,0.2423673719167709,0.9339997172355652,0.3069871664047241
1.8106279296875,0.920472777044028,-1.7319781066298483,4.773340191215277,0.2843354046344757,0.6538064479827881,0.4683552384376526
1.830680908203125,0.1342808985434472,-1.847871846219897,2.4601117639154197,0.1977071315050125,0.3899582028388977,0.5711848139762878
1.85073388671875,-1.3758210281983017,-2.238498911138624,-3.603278174710273,0.2334234416484832,-0.250230610370636,0.4208053052425384
1.870786865234375,-1.5427267237536608,-1.4170992333956065,-10.95088433228731,0.0258777029812335,-0.947338044643402,0.2475645393133163
1.890840087890625,-1.2493719923242923,-0.0675870605280622,-20.2378172154665,0.0635528787970542,-1.0808498859405518,0.1314613968133926
1.910891845703125,-0.5286766683459282,2.3633355433799323,-26.54036136264801,0.5957080125808716,0.2492589503526687,0.5175929665565491
1.93094482421875,-1.7228576654545962,2.609567581367493,-21.91415819054842,0.8966906070709229,0.8721818923950195,0.7799463868141174
1.950998046875,-2.686113937692344,2.0419613167770208,-15.073330173242091,0.9161292910575868,0.2251864373683929,0.6694033145904541
1.97105078125,-2.7829274214982984,1.1802115084670484,-9.672449034824966,0.4849294424057007,-0.6907525658607483,0.3770748674869537
1.991103759765625,-3.119243196645379,0.7004260776054114,-8.791438937988877,0.13822041451931,-0.8304750323295593,-0.1671537905931472
2.011156982421875,-2.1079408325105904,0.6519111260876059,-7.171535889443755,-0.1544080674648285,-0.3630664050579071,-0.6808226704597473
2.031209716796875,0.5668325768042356,0.8915329521551728,-3.829828337758779,-0.3238421082496643,-0.3746313452720642,-0.7578120231628418
2.0512626953125,3.344621977826953,1.9134547638513144,-1.0901233873933551,0.0931054279208183,-0.7075290679931641,-0.2236464470624923
2.07131494140625,2.974531358850002,1.7720643255636097,4.312441758587956,0.231513112783432,-0.7667319774627686,0.1181131303310394
2.091367919921875,1.177480841394141,1.0316928257346152,9.403248647573587,-0.2301890403032302,-0.3886319994926452,0.0401466339826583
2.111420654296875,1.245592473785579,0.9876822729639708,9.867816708624362,-0.3542949259281158,-0.0978057458996772,0.0299064368009567
2.131473876953125,1.6416852567642926,0.7857180504437535,10.137126985991,-0.1830464452505111,0.3511084318161011,0.188430055975914
2.15152685546875,0.6590688888877629,0.214243164259009,11.823555639845132,-0.1349034756422042,0.518108606338501,0.0302438586950302
2.171579833984375,0.4471063463792205,-0.329215441622585,13.310353701758384,-0.3725970089435577,0.4782643020153045,-0.1804408878087997
2.191633056640625,1.3351499951139092,-0.4953785021170973,12.27121406714916,-0.3720602691173553,0.2650037109851837,-0.2066411226987838
2.21168603515625,1.6462433584600686,-1.0143750495783983,11.403886458706856,-0.3118848204612732,-0.1729199886322021,-0.1663621813058853
2.231739013671875,1.7184861723721023,-1.3637610264398157,10.07275008314848,-0.3205563724040985,-0.3440598845481872,-0.1095119342207908
2.251791015625,1.926259300366789,-1.341791625085473,8.667405731084942,-0.3485071361064911,-0.0330084674060344,0.0283674132078886
2.271843994140625,1.4417336161755026,-1.7463699123367666,7.680780712088942,-0.3098669350147247,0.2285802215337753,0.0742341205477714
2.29189697265625,1.5196598825514316,-1.5773133223578333,6.056670859503746,-0.0356913991272449,0.3338343501091003,0.225850373506546
2.311949951171875,1.3549189638145267,-1.0034321422163397,5.403182401096821,0.1828894019126892,0.4829426109790802,0.506677508354187
2.3320029296875,0.1648015263503417,-0.999366646343097,4.200933686736226,0.4291780591011047,0.4168322086334228,0.648736834526062
2.352055908203125,-0.9663302728556096,-1.1731576444327831,2.6767373297989367,0.5486782789230347,0.1409594118595123,0.6816573739051819
2.37210888671875,-1.8153725752837957,-0.8014068371586501,-0.038924481678009,0.4100954830646515,-0.1452622711658477,0.640876054763794
2.392161865234375,-3.2192879174575206,-0.4671870113775134,-5.286183915135264,0.2800826728343963,-0.2887974679470062,0.3612492382526397
2.412214111328125,-4.040198350378871,0.1113311443822458,-10.573367362701893,0.0883058086037635,-0.2258549034595489,-0.1420391350984573
2.432266845703125,-2.8675740821704268,0.5016545136466622,-14.443305592530963,-0.2009742558002472,-0.3508406281471252,-0.4357092678546905
2.45231982421875,-0.8326280509829521,2.2752155075088143,-19.331338330852983,0.0066452212631702,-0.618650496006012,-0.1916437596082687
2.472373046875,-0.1919601303782314,2.9458748809471724,-21.371431954061983,0.4863513708114624,-0.8453877568244934,0.1678419709205627
2.49242578125,-0.8608809895861893,2.025085731430352,-17.18325195043683,0.4294358193874359,-0.8787516355514526,0.1628863215446472
2.51247900390625,-1.3102213055625558,1.122410842209682,-12.820561767601966,0.0179310925304889,-0.8137061595916748,-0.0078172013163566
2.532531982421875,-0.8722088046126067,0.813792563740164,-10.761764612966775,-0.0144534632563591,-0.9013102650642396,-0.1429056078195572
2.552584716796875,-1.40460595478639,-0.0911631298940628,-5.96857815003097,0.0404441878199577,-1.0359447002410889,-0.5290130376815796
2.57263671875,-0.4939829561054706,-0.2122058497451245,0.364547013375163,-0.2016454637050628,-1.0593109130859375,-0.8783098459243774
2.59268994140625,2.5696064501181244,1.2166196964751927,2.7559400458514687,-0.3040913343429565,-0.6772162318229675,-0.6145408153533936
2.612742919921875,2.7325316977351903,1.0832324588358402,5.544388276597857,-0.4873147904872894,-0.3395221531391144,-0.4786742031574249
2.6327958984375,2.7473782614722846,1.0451696354884654,6.609310587239265,-0.4879542589187622,0.0419994592666626,-0.3720041513442993
2.652848876953125,2.252934263726324,0.4532353506535291,8.481659287589787,-0.4676758944988251,0.1729303896427154,-0.425826221704483
2.672902099609375,2.65610487613678,0.2427544980701059,9.618057519423962,-0.5227631330490112,0.4535867273807525,-0.4002808034420013
2.692955078125,3.2400442897602915,0.1475468420255929,9.275541136071086,-0.349883109331131,0.8353184461593628,-0.1894952058792114
2.713008544921875,2.255286672071368,-1.214719123550877,10.563216555565594,-0.1970757693052292,0.5539675354957581,-0.2396488785743713
2.733061279296875,1.3154027998536824,-2.154268576182425,11.107066243124008,-0.1887096613645553,0.0948407799005508,-0.3800432682037353
2.753113037109375,1.972066381165385,-1.9514177070207888,9.801396317255495,-0.2860661447048187,0.1071631088852882,-0.3312936425209045
2.77316650390625,1.721631484660506,-1.9920897630184888,7.946835787051915,-0.2224208414554596,0.3187282681465149,-0.3008706867694855
2.793219482421875,2.0863439177304506,-1.7763770741961895,6.956438263779878,-0.0950728952884674,0.4615698456764221,-0.1804274022579193
2.8132724609375,1.652989179458469,-1.6466849647477269,6.4935594709903,0.1045829653739929,0.5090987086296082,-0.1163330674171447
2.833325439453125,1.3278336807511746,-1.3240326810330152,6.472127975904941,0.1745477169752121,0.7518038153648376,-0.1108433380722999
2.85337841796875,1.3963321935683488,-0.7326232237897813,5.70775746859014,0.1898852437734604,0.9983762502670288,0.0436324924230575
2.873431396484375,1.1362119154818355,-0.5532798522699623,4.201342267537116,0.2108724415302276,0.7785390615463257,0.2794200181961059
2.893484375,0.5077610503608361,-0.9575204319994896,0.1504354761391878,0.4049408733844757,0.0510995015501976,0.4677144587039947
2.913536376953125,-0.637658071264252,-1.2080998515415935,-4.731878300014138,0.5585224628448486,-0.530028223991394,0.4735450446605682
2.93358935546875,-1.7717128817774357,-0.7613566393863409,-8.821707235002517,0.3208754062652588,-0.2058808505535125,0.3006618320941925
2.953642333984375,-2.1218436856567857,-0.3332360754407942,-12.572649667572977,-0.0168044455349445,0.1613784581422805,0.0429599620401859
2.9736953125,-0.8340412787817418,0.8120732656668871,-16.185093145513534,0.0625021234154701,-0.1542794555425644,0.1570899486541748
2.993748291015625,0.0614841040104627,1.601786669357121,-18.031750939768557,0.4123055934906006,-0.631714403629303,0.5620154142379761
3.01380126953125,-1.7677601986289024,1.4522471191443502,-16.467539967828987,0.4374638497829437,-0.6837438344955444,0.6133290529251099
3.0338544921875,-3.7014915884420274,0.4937716149097308,-13.55975048738718,-0.0140624213963747,-0.3869258165359497,0.1200113147497177
3.053906494140625,-2.142631768272072,0.5062894434383138,-12.642528090441226,-0.2579891681671142,0.0584129877388477,-0.1866984963417053
3.073959228515625,0.0563020982626825,0.6774209765277802,-10.82270335805416,-0.0124917589128017,0.1740303188562393,-0.1009532883763313
3.09401220703125,0.6669957363642752,0.3319796456389129,-5.194082554543018,0.2128746509552002,-0.1762706488370895,-0.0094313975423574
3.1140654296875,-0.0179443836219608,0.2776554963856935,0.83516838311553,0.1440581679344177,-0.151242583990097,-0.101293109357357
3.1341181640625,-0.313900091329962,0.2069463217817246,5.771861984232068,-0.1765952110290527,0.0162999089807271,-0.2844114601612091
3.15417138671875,0.7888016226075589,0.3377315602291375,8.115317792013286,-0.3701876103878021,-0.0059198285453021,-0.2672220170497894
3.174224365234375,1.3383034907087683,0.2326492471085861,9.195327197149396,-0.3255169987678528,-0.0369239822030067,-0.2350682020187378
3.194276123046875,1.5573165362507104,0.1699512372637167,10.417592279100418,-0.3084384500980377,0.2678003311157226,-0.2283681333065033
3.214329345703125,2.415714403784275,-0.1866777329958975,11.663178030884266,-0.4167284369468689,0.5245343446731567,-0.0733213201165199
3.23438232421875,2.7419837089523678,-0.4887213457828387,11.80282264841795,-0.4332253038883209,0.5189230442047119,0.2092489898204803
3.25443505859375,1.5876117212712764,-1.252261576285958,12.05636953946352,-0.493005096912384,0.0108689237385988,0.226902961730957
3.27448828125,1.2464429531350731,-1.387283940846473,10.489380919504166,-0.4836834967136383,-0.2453326731920242,0.1728687137365341
3.294541259765625,1.874587565318495,-1.2033407473810016,8.21846310918927,-0.341493010520935,-0.1958023011684417,0.2392967492341995
3.314593994140625,2.157437707737833,-1.0542967256002127,6.411991779372095,-0.1214023306965828,0.0344888269901275,0.3919073939323425
3.334646240234375,1.5512959607869383,-1.0329104578960686,5.723001214951276,0.0632182210683822,0.4252865314483642,0.4565741717815399
3.35469921875,1.3706579463467,-0.6602747575461864,5.916391451197862,0.2377064079046249,0.7809908390045166,0.5652162432670593
3.37475244140625,0.1495027618663385,-0.8991308599382638,6.805051770526171,0.3380627632141113,0.9251611232757568,0.4808950126171112
3.394805419921875,-0.4709323353856802,-1.0988291833531112,6.817189367565512,0.341821014881134,0.8909201622009277,0.3245947062969208
3.4148583984375,0.5214920175388456,-0.769884375365451,4.233337826734781,0.3587382733821869,0.6982070803642273,0.4472214877605438
3.434911376953125,0.0488900273413164,-0.8927153668727725,0.4633358889073133,0.2754338085651397,0.5569876432418823,0.4567006230354309
3.45496435546875,-1.5363260629311204,-1.3785447540737688,-3.989102369391918,-0.0143438875675201,0.3588742911815643,0.1001713797450065
3.475016357421875,-2.590463360185921,-0.61708838064,-9.813686474508046,-0.157396137714386,0.078465960919857,-0.3707354068756103
3.4950693359375,-1.088508645673096,1.258367784206569,-15.9558752245605,-0.1204224824905395,-0.3362116813659668,-0.3756296932697296
3.515122314453125,0.0680918682450428,3.4393893427580595,-22.129079875123495,0.5677489638328552,-0.5511216521263123,0.0835228487849235
3.53517529296875,-0.64182315505445,3.321290202078223,-20.51269681739807,1.0103083848953247,-0.7740899920463562,0.4104715883731842
3.555228515625,-3.0002395083412527,1.6243981680072843,-15.232663826107975,0.6889243721961975,-0.5576822757720947,0.1311836391687393
3.57528125,-4.144631953799724,0.0201447614767588,-10.97811720712781,-0.0428560674190521,-0.1669278591871261,-0.5449718236923218
3.595333251953125,-1.1664239522635935,0.2880779966028407,-10.00365141248107,-0.3135237395763397,-0.2253632843494415,-0.806975245475769
3.615386474609375,1.2330249608963728,0.9867589475739746,-8.647872763097286,-0.0926633179187774,-0.4901659190654754,-0.6722442507743835
3.635439453125,2.0926842266678807,1.3055223340913653,-5.134000134024023,0.0688254982233047,-0.6935038566589355,-0.407745361328125
3.6554921875,1.4262765193246305,1.078342933228612,-1.0773264496624468,0.0293498467653989,-0.4655043482780456,-0.325694739818573
3.675545654296875,0.8222882240805774,1.2163103382650762,2.311530975732208,-0.0347513779997825,0.3476313948631286,-0.285373717546463
3.6955986328125,0.6269379398074001,0.942826647671312,6.015901626741885,-0.0785067752003669,0.7614467740058899,-0.3431262671947479
3.715650634765625,1.4915265517398717,0.7483088686995207,9.141776224225758,-0.0341559424996376,0.5453850030899048,-0.1902143806219101
3.73570361328125,1.0978170106358829,0.4876419895809143,10.477871683496236,0.161600112915039,0.3290241956710815,-0.0239869058132171
3.755756591796875,0.2168415832543745,0.0747883336763828,12.675277682876589,0.047987837344408,0.507425844669342,-0.0024616797454655
3.7758095703125,-0.3714054279025643,-0.6251569746747613,13.892081576812268,-0.2290073186159134,0.4837981462478637,-0.1355640888214111
3.795862548828125,-0.2378365500859916,-0.8985141893446444,12.353755572235585,-0.1464827507734298,0.2486093193292617,-0.2431723773479461
3.81591552734375,0.5843888378914446,-0.8047428497135639,11.725586264002322,-0.0748504474759101,0.012385856360197,-0.1581929624080658
3.8359677734375,1.1927755142249166,-0.9187959298729896,10.864525899261237,-0.1076136007905006,-0.3335582911968231,-0.0230840034782886
3.8560205078125,1.138829404503852,-0.6507716006636619,9.205380973652003,-0.039509329944849,-0.3057720363140106,0.161925196647644
3.876073486328125,0.4544419499643147,-0.709120036996901,8.256601408925652,-0.0337172895669937,-0.0459241978824138,0.1629604548215866
3.896126708984375,-0.1284198610229417,-0.7302100982334464,6.866244782635569,0.037648569792509,0.2438093423843383,0.1009020581841468
3.916179443359375,-0.0110315537598915,-0.545033417450264,5.281968343266844,0.2065579295158386,0.362678050994873,0.1010581627488136
3.9362314453125,0.1192421915014274,-0.5446318509120494,3.98046313586235,0.1818964332342147,0.2375406920909881,0.2016164362430572
3.95628466796875,0.1561115124816074,-0.6605874767571688,-0.1889770959794521,0.3088684678077698,0.0411010980606079,0.3731963336467743
3.976337646484375,-0.7088271184649318,-0.5011931066799908,-4.447247703918815,0.3582389950752258,-0.0490982867777347,0.3992297351360321
3.996390625,-2.074911400220543,-0.5064734217030927,-7.296530050334334,0.0867232233285904,-0.5009149312973022,0.1638820618391037
4.016443603515625,-1.8425187947541477,0.2173254577811807,-13.148768470573424,-0.0900386497378349,-1.4569159746170044,0.0561602562665939
4.03649658203125,-1.5244827726632355,1.4409947805069383,-21.018565441608427,0.2228472381830215,-1.4476662874221802,0.2522460222244262
4.056548583984375,-1.7228914215937257,2.244069404747337,-22.86779396313429,0.7406492829322815,-0.2697285711765289,0.5529990196228027
4.0766015625,-2.5876684687703846,0.5105368352171034,-16.219615008318424,0.5270175337791443,0.0374090783298015,0.3661951720714569
4.096654541015625,-2.7207185103446245,-0.8497371528245509,-12.787371445661783,0.3434688150882721,-0.5517604947090149,-0.0578442998230457
4.116707763671875,-1.939571055752039,-0.946549540651962,-10.846993749701976,0.1902210712432861,-0.7437208890914917,-0.3705700933933258
4.1367607421875,-0.3756121588774025,-0.5349125670608132,-8.036450591525435,0.0114735942333936,-0.4844159185886383,-0.4904650151729584
4.1568125,0.6497417461592704,-0.1049356346588581,-6.107056646394729,0.2051675617694854,-0.0855639204382896,-0.5827292799949646
4.176865966796875,1.3916928433299065,-0.1512626476783305,-0.6165010822713375,0.147092580795288,0.1086468026041984,-0.5716052651405334
4.196918701171875,0.9821371329922228,-0.3187973618522286,3.918013986212015,0.0528551377356052,0.0577367283403873,-0.6032299399375916
4.2169716796875,-0.573099089853093,-0.4423297796271741,7.002144952943921,-0.0021775960922241,0.2575148046016693,-0.8889036178588867
4.23702490234375,0.2569884828668087,0.0889355900377035,8.50360866906941,-0.0179308000952005,0.552560031414032,-0.9774512648582458
4.257076904296875,1.314325087619573,0.4399136583961546,9.995438879930973,0.1177817732095718,0.4469776749610901,-0.7554786801338196
4.277129638671875,0.7402977039404213,0.1973795981436967,11.81947450801134,0.2063124328851699,-0.0053278813138604,-0.6383669376373291
4.297182861328125,0.7116482403002679,0.1539317207571119,12.324771469813584,0.2475492805242538,-0.2149896174669265,-0.529754638671875
4.31723583984375,0.816311122432351,0.5380632131114602,11.30771857932806,0.3969026505947113,-0.093623049557209,-0.4182548522949219
4.33728857421875,0.6784769153214991,0.5295763936646283,11.428137102866172,0.2827140092849731,-0.0977256223559379,-0.436328113079071
4.3573408203125,0.7728457824543118,0.891809577139467,10.43017352825403,0.1659322082996368,-0.2170027941465377,-0.4074620604515075
4.377393798828125,0.3823777074895799,1.089816221140325,8.565258192774653,0.2047354578971862,-0.2812427878379822,-0.4282788336277008
4.397446533203125,0.2913903725538402,1.4679958924181755,6.613630204004049,0.2896460592746734,0.033586960285902,-0.441121369600296
4.417499755859375,0.564142972394079,1.4628792800568042,6.135151691022515,0.1826516687870025,0.4331206977367401,-0.4396171867847442
4.437552734375,0.7393070854678749,1.228733693443239,5.249308182680607,0.1138698905706405,0.7103748917579651,-0.3595092594623565
4.457604736328125,0.5410641850257292,0.7526977513082325,3.7489936365902414,0.1250480115413665,0.6655150651931763,-0.2864742279052734
4.47765771484375,1.2664543522894385,0.3936211321681738,0.3573550560444593,0.1969539672136306,0.3378926217556,-0.0174194034188985
4.497710693359375,1.3770396102078255,0.1903714729472994,-5.029973357838392,0.5235939621925354,0.2566457092761993,0.3263855278491974
4.517763671875,0.2316331836675293,-0.9248593215651808,-6.972935809594392,0.4691726565361023,0.2791323065757751,0.3083454370498657
4.53781591796875,-0.2617259597174823,-2.0772931807905435,-7.549249258384108,-0.1124466806650161,-0.0663826465606689,0.0442555919289588
4.55786865234375,-0.3615330723814666,-1.5727753866672516,-11.595966196876764,-0.5212997794151306,-1.0286753177642822,-0.0859369114041328
4.577921630859375,0.4497540478764101,0.1395795894734561,-18.93771661416292,-0.3259266912937164,-1.1912376880645752,0.0355920046567916
4.597974853515625,1.3112386659115551,1.2181081084020435,-21.16109993536472,0.0930013656616211,0.1676939129829406,0.3780438601970672
4.618027587890625,-0.4483079407213255,-0.1676464309200644,-14.32089735648036,-0.1874901503324508,0.8115928173065186,0.2752511501312256
4.63807958984375,-1.0796733050495386,-1.107404777061939,-9.056683865612746,-0.4949268102645874,0.2716018855571747,-0.0366396307945251
4.6581328125,-0.6027493645662442,-0.7230890872471034,-6.497784395208955,-0.5427827835083008,0.0273475050926208,-0.2031482011079788
4.67818505859375,0.073941032664664,0.1198290332123637,-3.5239719982832667,-0.4631642401218414,0.4590920805931091,-0.1376854330301284
4.69823779296875,-0.3046451735874638,0.1774303044401109,1.4596382523089646,-0.4767817854881286,0.7779948711395264,-0.1195911094546318
4.718289794921875,-0.1212018559355288,0.3607431641127914,5.1727808233171695,-0.4225434064865112,0.6050587892532349,-0.114362433552742
4.738343017578125,-0.1630476684203371,0.6934571884408592,7.710905801239609,-0.3162856698036194,0.1406957358121872,-0.0771617963910102
4.75839599609375,0.6548918954640627,0.5162152461796998,9.182696848157049,-0.1988505274057388,0.0615177676081657,0.1973013281822204
4.778448974609375,-0.5669504675628617,0.2356032380759715,10.741084228509663,-0.3133982121944427,0.4014935493469238,0.1460965275764465
4.7985009765625,-0.7174960895456374,-0.2382708498500287,11.141847633647918,-0.4144497215747833,0.6849215626716614,0.0532973483204841
4.818553955078125,0.0259775044845417,-0.6078062460970133,10.84984154034853,-0.2874631285667419,0.4271554052829742,0.1437064409255981
4.83860693359375,0.563105336442031,-0.8777822938960045,10.622331592357158,-0.1470885276794433,-0.2353121638298034,0.2929572761058807
4.858659912109375,0.0012763948776759,-0.9700254741117358,9.73124492266476,-0.0401988476514816,-0.597018837928772,0.338844895362854
4.8787119140625,-0.3263507363738492,-0.9435459749218076,8.262976204654574,0.0899335816502571,-0.6159939765930176,0.2660324573516845
4.898764892578125,-0.2323014931168407,-0.5513601362537592,7.916473966535926,-0.0048691341653466,-0.2057609856128692,0.2187294214963913
4.91881787109375,-0.7816843379482626,-0.6204772924259304,6.587866232672333,-0.0669556707143783,0.1868130564689636,0.048463687300682
4.938870849609375,-0.6657211133185774,-0.7652060082908719,4.83831155281961,-0.050202090293169,0.2880275547504425,-0.0458043962717056
4.958924072265625,0.0486280747697688,-0.4547314344301819,3.068002254229784,0.0126294633373618,0.3814717233181,0.1217323020100593
4.97897607421875,-0.1751397092849016,-0.6993938119482248,1.2414192797541617,0.0938664898276329,0.3378954231739044,0.1850058436393737
4.99902880859375,-0.6230415899559855,-1.0693308477986605,-1.1272025334656235,-0.0964820981025695,0.2803655862808227,0.0646138563752174
5.01908203125,-0.4002653924882411,-1.070281353456527,-5.483631317818165,-0.3001287281513214,-0.0860487073659896,-0.0961049422621727
5.039135009765625,0.2053574634213931,-0.5518959236308932,-11.009413678145409,-0.2988337278366089,-0.719613790512085,-0.0866498500108718
5.05918701171875,0.7009730439636855,0.5031103750107809,-18.46393941074013,0.3025361001491546,-0.5777464509010315,0.0659718215465545
5.07923974609375,0.397011395660974,1.2884407047785815,-20.408981591379643,0.6682706475257874,0.2772856056690216,0.2038351893424987
5.09929296875,-0.1773623172378167,0.927770532836765,-17.37129614948034,0.6989557147026062,0.6303334832191467,0.229696437716484
5.119345703125,-0.3035934725774452,0.1361121325585991,-14.029715439045429,0.6268422603607178,0.3575716912746429,0.0553069822490215
5.139397705078125,-0.3133257255081087,-0.1925911948233842,-10.959207923996448,0.3207170367240906,0.3511872291564941,-0.1386109590530395
5.159450927734375,0.018367248676531,0.2092863090366125,-9.321678617867828,0.3341115415096283,0.31946462392807,-0.2451093047857284
5.17950390625,0.6350320336095988,0.6805648275114595,-6.079981592464447,0.35328209400177,0.199330449104309,-0.2524402141571045
5.199556884765625,1.2955002679012717,1.3383951145149766,-2.268360527047515,0.3095109462738037,0.0271822251379489,-0.071277379989624
5.21960888671875,1.2529419597655531,1.972956315742433,1.7146330040752886,0.2507908046245575,-0.0554940104484558,0.1552434712648391
5.239661865234375,0.1053475399279966,2.017308813818544,5.88385228664279,-0.0433468520641326,0.1236177086830139,0.2305843234062194
5.25971484375,-1.120544975272566,1.9328174898386,8.25293119598031,-0.3279125690460205,0.344576358795166,0.1373902112245559
5.27976708984375,-1.3575788306735457,1.9580609444275496,9.728777071246505,-0.5118011236190796,0.326091319322586,0.0257504805922508
5.29981982421875,-0.3993049134256318,1.7724622388400135,9.96608652871847,-0.3928007483482361,0.2017840892076492,0.2129497081041336
5.319872802734375,-0.649652241244912,1.7968322715952991,10.467911430495976,-0.1625047624111175,0.3041780591011047,0.4399110078811645
5.339926025390625,-1.7978902562156318,0.8053513370007276,12.670486941468717,-0.2680204212665558,0.48312908411026,0.3613777160644531
5.359977783203125,-2.211554643981158,-0.1562155208453536,13.64028123717308,-0.531335711479187,0.3400444686412811,0.146051600575447
5.38003076171875,-1.4059022782072423,-0.5850303506653756,12.975005310338735,-0.7194038033485413,-0.0940253660082817,0.0560806319117546
5.400083984375,-0.6050394117321819,-0.6084661713104694,11.298146448862552,-0.812769889831543,-0.3706547617912292,0.1801635771989822
5.42013671875,-0.5756376684200019,-0.6431140716478229,8.352006487238407,-0.5647096037864685,-0.343622624874115,0.2691490054130554
5.440188720703125,-0.959035731933266,-1.0604884198471902,6.855833278736472,-0.2758193016052246,-0.1217354163527488,0.2289600968360901
5.460241943359375,-0.8674727160014212,-1.396681737658381,6.746147161614895,-0.3048003613948822,-0.0525523386895656,0.1777312755584716
5.480294921875,-0.0876449657052755,-1.1915545210625975,4.400930773901939,-0.274451732635498,-0.0282603427767753,0.3380815088748932
5.50034765625,0.9846918589763344,-0.9244723680742084,0.4755699320584535,-0.0207772497087717,-0.1932710707187652,0.7659069895744324
5.52039990234375,-0.1843595922466367,-1.334741706573963,-2.469226798263192,0.19519804418087,-0.6804838180541992,1.0020333528518677
5.540452880859375,-2.772982658328116,-1.648536730094254,-4.668787345328926,0.2099568247795105,-1.0183610916137695,0.7378256916999817
5.560505859375,-2.7768250129699705,-1.320265437453985,-7.980194451296329,-0.3117077946662903,-1.1817039251327517,0.1807070821523666
5.580557861328125,-1.2495122775778174,-0.2608345638357103,-15.522603050005436,-0.6506409049034119,-1.1821988821029663,-0.117405280470848
5.60061083984375,0.4754561329530551,2.201193993486464,-24.17580665273666,0.0400510989129543,-0.6472376585006714,0.2238185405731201
5.620663818359375,-0.0332722280699759,2.5767826253578066,-23.04804180921316,0.6397350430488586,-0.3057110905647278,0.5703975558280945
5.640716796875,-1.8179196294181048,1.3216359951548278,-17.248460043406485,0.554578423500061,-0.2336861342191696,0.3842518031597137
5.660769287109375,-1.5513598198033869,0.6786991797700523,-13.112680089104174,0.1282869428396225,-0.0558575130999088,0.0104548810049891
5.680822509765625,-1.3305433781012892,0.939744902138412,-9.350034359258412,-0.209874227643013,0.6831629872322083,-0.3192743957042694
5.70087548828125,-0.5005552837004885,0.5926558405751362,-5.095889891338348,-0.3016976416110992,1.297331929206848,-0.6833974123001099
5.720927490234375,0.2471865987660363,1.00849980086945,-0.6708645406216383,-0.339598536491394,1.3777292966842651,-0.9252541661262512
5.740980224609375,2.65739140881598,0.8028820973429829,3.0208968041837214,-0.3218958079814911,0.6873171329498291,-0.6135923266410828
5.761033447265625,5.339632012206316,1.1827721527352928,4.858474635404348,-0.0304666049778461,-0.0526547953486442,0.4758325517177582
5.781086181640625,3.3889804672524333,0.658278688358143,6.119415192708373,0.4737646579742431,-0.2820654213428497,1.1295368671417236
5.80113818359375,0.0220845156339928,-0.9717366619437932,9.848008430826663,0.5758792757987976,0.076656587421894,1.0058565139770508
5.82119140625,-2.056336171349138,-1.461361568970233,12.543923923826217,0.4846497476100921,0.4982118010520935,0.6179662346839905
5.841244384765625,-3.83131886857748,-2.084563902445882,13.500642464858291,0.6009269952774048,0.2930230498313904,0.1229205951094627
5.86129638671875,-3.705270814719796,-1.8817337838113304,15.063404991555212,0.2240040898323059,0.0856667831540107,-0.2753187417984009
5.881349365234375,-1.5211770091161132,-0.4303319563847035,13.024938677287102,-0.1267627775669098,0.1440369486808776,-0.3184496462345123
5.90140234375,-0.2232941934598609,0.573169451675564,10.198080928647515,-0.1031045243144035,0.2554803192615509,-0.1997483670711517
5.921454345703125,0.5361301992222667,0.9372920290935784,9.419451009833812,-0.1394584625959396,0.4031494259834289,-0.0810217931866645
5.941507568359375,0.6238089941319078,0.8248945341214537,7.171391512537002,0.074354663491249,0.4988201558589935,0.0062373117543756
5.961560302734375,-0.0015879267785698,0.7761484772615135,6.275718684098124,0.2999098896980285,0.6627317070960999,-0.0460308156907558
5.98161328125,0.5215194170024245,0.6347220178123563,7.228596331793069,0.0340492390096187,0.7520933747291565,0.1336723119020462
6.00166552734375,1.2555915974915026,0.3190991943430155,3.9449674595892423,0.0419256836175918,0.4083335697650909,0.5312426686286926
6.02171826171875,0.7572346640855073,-0.6873360752120614,0.9594020810276268,0.0763606652617454,0.0414198152720928,0.8030408620834351
6.041771240234375,-1.0499429873701185,-1.8662790250480172,-2.685350844365358,0.1119377091526985,-0.3433671295642853,0.6967267990112305
6.061823486328125,-3.0042268244117496,-2.961584491254389,-6.7490136569619175,0.0053885648958384,-0.7638444304466248,0.0232541896402835
6.08187646484375,-2.4594793112307785,-2.85667567153722,-9.737236856555938,-0.7274511456489563,-1.0695323944091797,-0.5458618998527527
6.10192919921875,0.0897924625953659,-0.7837249038651585,-18.57077949078083,-0.7847457528114319,-1.393783688545227,-0.3111466765403747
6.121981201171875,0.9712333155315368,0.6233103238947689,-25.17237672716379,-0.0439255870878696,-1.5372262001037598,0.3285780251026153
6.142034423828125,-1.2527180878818034,0.4225584363063797,-23.772905066525936,0.6055033802986145,-1.318553447723389,0.5061469078063965
6.16208740234375,-2.7447362225309013,-0.8104165114358067,-16.812149524068833,0.3873482644557953,-1.0346781015396118,0.1609602868556976
6.182139404296875,-3.232131909200549,-1.0764355652373283,-11.615579244363309,0.0635539293289184,-0.707095205783844,-0.2977595925331116
6.2021923828125,-2.602398712651431,-0.5506714964024723,-6.147838738638162,-0.0663820505142211,-0.2436822801828384,-0.6496900916099548
6.222245361328125,-0.3531817889478057,0.4042760894343257,-0.4926292034089565,-0.2215002626180648,0.16470667719841,-0.7316225171089172
6.24229833984375,2.154428150658309,0.7471038768239319,2.957813448283076,-0.1328621804714203,-0.5160806775093079,-0.6731124520301819
6.262350341796875,4.474317789413035,0.3189418848894536,5.771995839744806,-0.0547178201377391,-1.4147636890411377,-0.2172282934188842
6.2824033203125,3.7577079811826346,1.192604541572183,5.819462524318695,0.2044199407100677,-0.8981359601020813,0.2715904712677002
6.302456298828125,2.0570731073215605,0.9238718448977916,7.899321756204962,0.3935429453849792,-0.0345526710152626,0.218186154961586
6.322508544921875,0.8718655441328883,0.6262118174899369,11.26924067237377,0.2558351159095764,0.317234992980957,-0.0907738208770752
6.342561279296875,1.2481933039337396,0.6866580298200249,12.055724227297306,0.1036821007728576,0.155410960316658,-0.2076125741004943
6.3626142578125,0.7377810449443757,1.0679656969252973,9.823334592819212,0.3514411151409149,-0.0305817890912294,-0.3112035095691681
6.38266650390625,0.4700072564300149,1.260456865440309,10.313393068957328,0.2179342359304428,-0.0630305185914039,-0.4539404511451721
6.402719482421875,0.002627718155086,0.9785399122178554,10.01191070678234,-0.1696130186319351,-0.0518789924681186,-0.7954343557357788
6.422772216796875,1.0801466947149485,1.5345800960466265,6.85966014354825,-0.1352241337299347,0.1970897167921066,-0.8361175656318665
6.442824462890625,1.8911798036791383,1.7863981174729764,5.159596932095289,0.1756514012813568,0.4789457321166992,-0.6385877132415771
6.46287744140625,1.5787345873326062,1.253697308177501,5.464442048701644,0.3297556638717651,0.7013893127441406,-0.4835455417633056
6.482930419921875,1.4712760831326246,0.4034899074926972,5.907644665640592,0.2790940999984741,0.8933796882629395,-0.4056060314178467
6.502982177734375,2.091356192934513,-0.688294910306856,4.836252282202244,0.2566173672676086,0.7407031655311584,-0.2445154786109924
6.523035400390625,2.3256845887690782,-1.0877584118276833,1.326589964300394,0.6177307963371277,0.1027775928378105,0.0892539545893669
6.54308837890625,0.9299301950886844,-1.0769016483791172,-1.4363894786685705,0.8013131022453308,-0.4394832849502563,0.2812545597553253
6.563140380859375,-1.385434659717977,-1.81373269912228,-3.615470716807246,0.4948431849479675,-0.456058531999588,-0.0888747349381446
6.583193359375,-1.8256594298899171,-1.4133246832929551,-8.438204176744819,0.4469103515148163,-0.2633777558803558,-0.5231138467788696
6.603246337890625,-0.8374864507995545,-0.4010015978083014,-11.710800198280811,0.5500178933143616,-0.1291266232728958,-0.5714737772941589
6.62329833984375,-1.6867013333156704,0.6423913103312253,-12.185323251634836,0.482671856880188,0.1894536614418029,-0.4820058643817901
6.6433515625,-2.499068978819251,0.2277766361035406,-10.530069488245248,0.1332521736621856,0.4476793706417084,-0.6105440258979797
6.66340380859375,-0.7995358556549995,-0.1551889542765915,-10.114722261959312,-0.2182387113571167,0.3925365209579468,-0.527754545211792
6.683455810546875,0.2628731569912284,-0.2559483992293477,-10.620270568174124,-0.1864273995161056,0.139140784740448,-0.1697307974100113
6.7035087890625,-0.7156767651639878,-1.290100893075764,-8.043280729806423,-0.3262671530246734,-0.1892639547586441,-0.1203900352120399
6.723561767578125,-0.7491277838669717,-2.061039234473556,-5.61316429118216,-0.6955862045288086,-0.4341103136539459,-0.2171982526779174
6.743614013671875,-0.3370570950336754,-1.5356046167887747,-4.814502222687006,-0.6941800117492676,-0.1696114540100097,-0.2111928313970565
6.763666748046875,-1.2220073808629066,-1.4084879107862711,-0.1229647008895874,-0.6773540377616882,-0.1505335122346878,-0.4191325306892395
6.7837197265625,-1.0234604194402694,-1.1554584677435458,4.245829059517384,-0.7366862297058105,-0.4818868041038513,-0.608147919178009
6.80377197265625,0.6263672272473574,-0.4267644000962376,5.391796499207616,-0.4938124418258667,-0.8000103831291199,-0.4670596420764923
6.823824951171875,0.2418563071213662,-0.2714233239978552,7.111936868527531,-0.4681411981582641,-0.6685826182365417,-0.4429561197757721
6.843877685546875,-0.2748592167306691,0.4577151264160871,6.474912053665518,-0.3909933567047119,0.3123631477355957,-0.5425032377243042
6.863929931640625,1.0308122435078024,0.924768939867988,7.195068156200647,-0.2479261755943298,0.8962223529815674,-0.4327600300312042
6.88398291015625,1.4086208895161747,0.735574547876045,8.30078775665462,-0.0151937752962112,0.6766436100006104,-0.2465676069259643
6.90403564453125,1.137495379421115,0.5513000766295939,9.041592094942926,0.15517158806324,0.2021402865648269,-0.2186028361320495
6.924087646484375,1.0314278911881147,0.7040267324458808,10.262906744301318,-0.0281263347715139,0.2558477222919464,-0.2018254548311233
6.944140869140625,1.0751990822449329,0.699941435893625,9.017906098929046,-0.0855021849274635,0.3772163391113281,-0.1909422576427459
6.96419384765625,1.0984347041428089,0.2908684675715863,7.523420989644527,0.0959129557013511,0.277189701795578,-0.1374998986721038
6.984245849609375,1.7494325147777794,-0.1085900655131787,6.729629157534241,0.2253869622945785,0.2886435687541961,0.0881112217903137
7.004298828125,1.862177873339504,-0.2865098339706659,5.803650038158893,0.4136255085468292,0.2382863909006118,0.359889268875122
7.024350830078125,1.5528947742857038,-0.4288471977196633,4.6536511509954925,0.5103797912597656,0.3145289719104767,0.5918207168579102
7.04440380859375,0.5896037229955196,-1.015964949118346,2.8146961862027644,0.4277180731296539,0.4212026298046112,0.616978108882904
7.064456787109375,0.3722646750804037,-2.024043090509623,-0.5811550436019897,0.3611742258071899,0.0927384048700332,0.5627172589302063
7.0845087890625,1.505146350160986,-1.890491675284505,-5.856157639509439,0.5123853087425232,-0.6436986923217773,0.758266806602478
7.104561767578125,-0.3013620602635666,-0.9376618122540412,-9.717200030699372,0.3202182352542877,-1.285111665725708,0.8114243745803833
7.124614990234375,-3.745060388794541,-0.4612580597199499,-14.907857871490716,-0.001531554153189,-1.3610352277755735,0.3124520778656006
7.1446669921875,-4.0194191817224025,0.4205063626147806,-19.002791436141727,-0.0985433533787727,-0.2358556687831878,-0.0641361847519874
7.1647197265625,-1.898341804262996,0.472062800720334,-18.163229786503315,0.0035467168781906,0.2780861854553222,0.0213921125978231
7.18477294921875,-1.22704778618291,-0.0210049402363598,-13.665740672600268,0.0788176357746124,0.0406827256083488,0.1219822466373443
7.204824951171875,-2.304718811499327,-1.0259554511263966,-7.787938772037624,-0.445305585861206,-0.0561265684664249,-0.3042435348033905
7.2248779296875,-1.4805056837707755,-0.7530570861399173,-5.45922694440186,-0.6877226829528809,-0.1211399883031845,-0.6367201209068298
7.244929931640625,0.8007893628474324,0.5741610930614173,-4.262945614013075,-0.2702746093273163,-0.3603653609752655,-0.3712311685085296
7.26498291015625,1.963520963399112,0.9943572206832468,-0.5934533841609955,0.1600962728261947,-0.6165387630462646,0.111219048500061
7.285035888671875,-0.3036476504500955,0.1983966662317514,5.346974191662669,-0.0554279834032058,-0.3415487408638,0.0078324247151613
7.305087890625,-1.1449691493678835,-0.3433959426663815,8.807174851781129,-0.4805657565593719,0.204772263765335,-0.4090771079063415
7.325140869140625,0.3858876153066754,0.0198038208182901,9.162603323677182,-0.470315009355545,0.6792008280754089,-0.5367047786712646
7.34519384765625,2.098985080377757,-0.207612895931676,10.368670135021208,-0.2917928099632263,0.48628830909729,-0.3726941645145416
7.365245849609375,2.6632871888563034,-0.1239538580574095,11.399357583105564,-0.253772884607315,0.3730261623859405,-0.1040383428335189
7.385299072265625,1.577246394601464,-0.4022157228384166,11.761738942879438,-0.3047952651977539,0.3745218515396118,-0.1028274595737457
7.405351806640625,1.1139132821731268,-0.5884017267946153,11.715438963997364,-0.4176389873027801,0.2973093688488006,-0.1735588759183883
7.42540380859375,1.2851117064863442,-0.5839868329618125,10.11006596058607,-0.462523877620697,0.0873725786805152,-0.2359405308961868
7.44545703125,2.647614403428137,-0.0227194160040467,7.775429419076442,-0.4116736352443695,0.0663939863443374,0.0145451417192816
7.465509033203125,2.4862574280411005,0.3832810860700905,4.754398759379983,-0.0177318900823593,0.2581210136413574,0.3121075332164764
7.48556201171875,0.8832317914735526,-0.17488617291525,4.655421667799353,0.2098200619220733,0.4013190865516662,0.3157344758510589
7.50561474609375,-0.1032518280240707,-0.5298820986129343,4.201825667139888,0.3277038633823395,0.5072383880615234,0.1962634176015854
7.5256669921875,0.4705888922428712,-0.105883802229166,2.3257588230490684,0.353379875421524,0.6219850778579712,0.3087598979473114
7.545719970703125,0.6516646039806306,0.1737012009143829,-0.2261205394595861,0.3702474534511566,0.532894492149353,0.5639302730560303
7.565772705078125,-0.3634924262883141,-0.5887798393920064,-2.2544588429450987,0.326776772737503,-0.0852102488279342,0.6035191416740417
7.585824951171875,-1.670312216311693,-1.3850517978802324,-6.508313972529769,0.4017719030380249,-0.815687358379364,0.3146189153194427
7.6058779296875,-1.614630661100149,-0.8310009612377732,-10.409618231481312,0.240726351737976,-0.9105119109153748,0.1018775254487991
7.6259296875,-0.9503532437838612,0.104544662579894,-13.255721947860716,-0.0002815558109432,-0.6429113149642944,0.1864175349473953
7.645983154296875,-1.4946651420265435,0.3727265204384923,-16.23604591863751,0.1126714572310447,-0.2349646538496017,0.2188443541526794
7.66603662109375,-1.0643811164367942,0.2935629673525691,-15.80842256362438,0.2056090384721756,-0.0523089617490768,0.2987309992313385
7.686088623046875,-1.207059914034605,-0.1132925441157072,-13.504827641588449,0.2235136032104492,-0.2692572176456451,0.2856148481369018
7.706141845703125,-2.0209674824565647,-0.8176905940920114,-9.535111525189876,-0.042394746094942,-0.2775713205337524,0.0502643212676048
7.726194580078125,-2.366847789284587,-1.033670920874551,-5.649808552968501,-0.5791615843772888,0.0725345760583877,-0.4344159960746765
7.74624658203125,-0.3538791235622018,-0.0347290758147835,-3.9663884332805863,-0.666616678237915,0.1894304305315017,-0.6643580794334412
7.7662998046875,1.8418344657517969,0.9951671488266438,-1.5566864216536282,-0.2973573207855224,-0.1996087878942489,-0.4670442938804626
7.7863515625,2.385262566897273,1.2866867007181049,2.662659704607725,-0.1702909618616104,-0.2979940772056579,-0.1919179260730743
7.806404296875,1.529378581880778,0.9886915230717508,5.5685600103020665,-0.1904770731925964,0.0877387821674346,-0.1397538930177688
7.82645751953125,0.3717733844321221,0.6407117597464471,8.039043530628085,-0.2252319008111953,0.3279128968715668,-0.3777610659599304
7.846509521484375,0.9002124446298927,0.1417637285795062,9.787897368735074,-0.2237861901521682,0.0654811933636665,-0.5010277628898621
7.866562744140625,1.7693090355060994,0.1816996523223817,9.875790756243466,-0.1887843757867813,-0.0122187808156013,-0.3318365514278412
7.886614501953125,2.224463809914887,0.1573939900401979,10.185186375761033,-0.1997744143009185,0.0591302700340747,-0.0870147943496704
7.90666748046875,1.6602693995945157,0.089491689550504,9.84031261562705,-0.115553393959999,0.0124451201409101,0.0340499505400657
7.926720458984375,1.3705321280099452,-0.2182187533590942,8.816540646019577,-0.0648444816470146,0.096568539738655,0.0538348965346813
7.9467724609375,0.9459903723992408,-0.7796158611111342,8.33461813006401,-0.0722355246543884,-0.2073527425527572,-0.0386060997843742
7.96682568359375,0.9835235458493232,-0.4436642431013285,6.024879882967472,0.1724901497364044,-0.314089834690094,0.052227322012186
7.98687744140625,1.4063092515729367,0.0159072517711669,3.849461843511462,0.458734929561615,0.176969826221466,0.3896008431911468
8.006930419921876,-0.5358299741666763,-1.0238226038161664,4.033573963803053,0.4848160743713379,0.223447248339653,0.2270886152982711
8.026983642578125,-1.1614297241728753,-1.530317762427032,3.0230864231824874,0.4700736105442047,0.2366458177566528,-0.005008250940591
8.04703564453125,-0.4044503500226885,-0.8911626575380563,1.104948616081476,0.5220490097999573,0.5166222453117371,0.1738213449716568
8.06708837890625,-0.1846598538348451,-0.954424292615056,-0.3246849585860967,0.4117150008678436,0.1263487040996551,0.2864880263805389
8.087140380859376,-0.6955925930343568,-1.070957133826241,-3.642240650311112,0.1541198343038559,0.0949575901031494,0.2793918550014496
8.107193603515626,-1.679414537308365,-1.294663378685713,-7.727899021616578,0.0257150828838348,0.2420830279588699,0.056694246828556
8.12724658203125,0.4970879363834857,-0.1772919188827276,-11.25635780992508,-0.0253451745957136,-0.0956895798444747,0.2797243893146515
8.147298583984375,0.8041863118093461,0.8447987465742975,-13.878364017105104,0.3562991619110107,-0.4151462614536285,0.5615051984786987
8.1673515625,0.095309216722846,0.8138768810227512,-13.807643882715702,0.6563199162483215,-0.4823591113090515,0.7356005907058716
8.187403564453126,-1.4526003164961934,-0.0257676245935261,-10.248714552819727,0.2800908088684082,-0.3501384258270263,0.4679442346096039
8.20745654296875,-1.1191274366248398,-0.531463376455009,-7.966207426998019,-0.4739597737789154,-0.1547866016626358,0.2082729339599609
8.227509521484375,0.0770960991621017,-0.1847583092406392,-9.740082309114932,-0.4304836988449096,-0.4878669679164886,0.2105025351047516
8.2475615234375,0.6787916803590953,0.602142448181659,-10.06291842496395,0.225495308637619,-0.631488561630249,0.4905194342136383
8.267614501953124,-0.1231647535063326,0.7405725753590464,-4.584143899527192,0.4451289474964142,-0.5261992812156677,0.6044163703918457
8.28766650390625,-1.3066728193007409,0.5268298714354634,1.727427019196749,0.0795256122946739,-0.3167907297611236,0.3401509523391723
8.3077197265625,-1.1729961702607572,0.8289952474385499,5.293510897022485,-0.4755675792694092,0.0446395128965377,-0.0354763194918632
8.3277724609375,-0.3593069207645952,1.1377454086594283,6.197869136220216,-0.808542788028717,0.55596923828125,-0.2204837948083877
8.347824462890625,0.486905418934673,1.197432838511467,5.7646635971605775,-0.4914767146110534,0.5746568441390991,-0.2310791313648224
8.367877685546874,1.1912838143624365,1.0805227614857256,7.134857140865922,-0.1214878633618354,0.4654294550418854,-0.061054028570652
8.3879296875,1.2888456323176622,0.8360037379611283,9.529255200377106,-0.0261936709284782,0.4984712898731231,0.1674578040838241
8.407982666015625,0.9221733704168348,0.2349376868393272,10.99434002765417,-0.1530470252037048,0.5453732013702393,0.273978978395462
8.428034423828125,0.3443993840878829,-0.0469572006817907,11.418604719889164,-0.2700801491737366,0.377607524394989,0.2225908935070037
8.448087646484375,-0.066404828473553,-0.2819436950989067,11.25533022044301,-0.3299244046211242,0.0308022610843181,0.0992013812065124
8.468140625,0.2625543733656406,-0.1266037149790674,9.871274740123749,-0.3391233086585998,-0.0805770233273506,0.0542901754379272
8.488192626953126,1.4596519885733723,0.1690424153231084,7.908572984153031,-0.2389850467443466,-0.0132095031440258,0.2644634544849396
8.50824560546875,1.10693445613645,-0.0603085574250668,6.6866527701169245,-0.0976448878645896,-0.1726752966642379,0.4205341935157776
8.528297607421875,-0.7977377201918512,-0.9057917791321872,5.068997208237648,0.0450547412037849,-0.1421248465776443,0.1887542456388473
8.5483505859375,-0.9890857100211085,-1.3146785772323608,3.7738597822993993,0.0205609146505594,0.2242670655250549,-0.0003249298315495
8.568402587890626,0.2897546976434066,-1.5424119587160643,1.733283928531408,-0.0898652523756027,0.21930593252182,0.0578452311456203
8.588455810546876,0.2497649613540619,-1.864523413552344,-2.436172085401416,0.0266524422913789,-0.1062013581395149,0.1606740057468414
8.608508544921875,-0.3923860008826479,-1.9958336257219316,-6.971213223585486,0.4719474613666534,-0.200681984424591,0.1673410981893539
8.628560546875,-0.3258532717131078,-2.0064789383769037,-8.13174110354781,0.5576145648956299,-0.2779102623462677,0.0730418860912323
8.64861376953125,0.0449920380886644,-1.386898887051642,-9.693044663608074,0.3951268196105957,-0.3858033120632171,-0.0652640089392662
8.668666015625,-0.1010564551379531,-0.2610606276765465,-13.001114734107254,0.4796081781387329,-0.2748429179191589,-0.0149707831442356
8.68871875,-0.0228567055828869,0.9311910818699748,-14.133323113036155,0.8365962505340576,-0.3333689272403717,0.3358976542949676
8.70877197265625,-0.8727562824275344,0.5823169269882142,-11.404724663096664,0.7791309356689453,-0.686785101890564,0.3716174364089966
8.728823974609375,-2.665738381400704,-0.204186355549097,-9.79941011187434,0.2267506420612335,-0.1271045058965683,0.0270003546029329
8.748876953125,-1.8141187758304176,-0.453363214816898,-10.24745899980068,-0.1800519824028015,0.3434377908706665,-0.3287279605865478
8.7689287109375,-0.1421522164404392,0.4449884774424135,-10.086881484353542,-0.0921152234077453,0.3527983129024505,-0.3650158941745758
8.78898193359375,0.5377195873055607,1.4250067916497586,-7.758982142144441,0.2138705253601074,0.1972421556711197,-0.2356906533241272
8.80903369140625,0.9381102866739034,1.587479911585152,-2.0555226630091665,0.1369513720273971,0.1856429576873779,0.0254987571388483
8.829086669921875,0.292409559533745,1.1568613202787934,2.795062095928192,-0.0611460581421852,0.1507912278175354,-0.0048886677250266
8.849138671875,0.0701695147693157,0.838149590883404,5.873358365157246,-0.3344065546989441,0.1774635463953018,-0.2237044274806976
8.869191650390626,1.1939203003458678,0.8281957676239311,6.558612665659189,-0.5650457143783569,0.118636317551136,-0.2284578531980514
8.88924462890625,1.807994593861699,1.0085510196000338,5.095279065963625,-0.3947438895702362,0.2937905490398407,0.029791984707117
8.909296630859375,1.2721908501148222,0.8031710703521966,5.869119996935129,-0.039548821747303,0.6833649277687073,0.2975238859653473
8.929349853515625,0.3026949528351426,0.3528444467522204,8.494199035689235,0.1336373090744018,0.994812786579132,0.3612770438194275
8.94940185546875,-0.4392707939153537,-0.0546516276419162,10.984480312418937,-0.0048128040507435,0.966163456439972,0.26960289478302
8.96945458984375,-0.4921339672379195,-0.0286862154539674,10.818387248420716,0.0243711285293102,0.5676960945129395,0.2570748925209045
8.989506591796875,-0.5425786447092891,0.2572683957867324,9.86730116031766,0.1670897156000137,0.2703770697116852,0.3329711854457855
9.009559814453125,-0.6917240079727024,0.1093967787861824,9.941863941609858,0.0313368029892444,0.0827803015708923,0.2877641916275024
9.02961181640625,-0.7872937753278761,0.2370161736138165,8.253713286268711,-0.0138401072472333,0.2684620916843414,0.2177460640668869
9.04966455078125,-0.2366093829112127,0.5674245513480156,6.805329418423772,-0.0257730744779109,0.4514473676681518,0.2863225936889648
9.0697177734375,0.0170888262385502,0.4772592003196477,4.814844167992472,0.2824795842170715,0.3386580049991607,0.4324528574943542
