timestamp,acc_x,acc_y,acc_z,gyro_x,gyro_y,gyro_z
0.100310546875,0.0951165619612671,0.0513884611275047,0.5322866755366326,-0.0635691359639167,-0.0484010316431522,0.1130076646804809
0.120361572265625,0.0306754028100753,0.0955923993120901,0.1934860978364944,-0.0657885670661926,-0.0226447731256485,0.1306573301553726
0.140413818359375,-0.1658131328119896,-0.0036929681998444,-0.0988309611082077,-0.0286114998161792,0.0498922690749168,0.1099610030651092
0.16046484375,-0.3238620978958904,-0.0893660082110669,0.2262865436762571,-0.0655425265431404,0.0843201279640197,0.0779379978775978
0.1805166015625,-0.3682983287326991,-0.0655477641196455,0.2837853774428367,-0.0887460634112358,0.0503381714224815,0.0376645028591156
0.200568603515625,-0.2294841706737875,0.025867742233444,0.0739993021905422,-0.0944472327828407,0.0516203939914703,0.0339328199625015
0.220619873046875,0.0365832705804146,0.1309709520115517,-0.2352548630297183,-0.0219071619212627,0.0414003618061542,0.1168137565255165
0.240671875,-0.0056757714809384,0.0257648663808591,-0.1356149236261844,0.0599703416228294,0.0276204925030469,0.1711896359920501
0.26072265625,-0.2337603866882622,0.0406234036835376,0.3228115659296512,0.0549185760319232,0.0382605381309986,0.1941139101982116
0.280774658203125,-0.1263666274207178,0.1060205529518891,0.6562450636386871,0.0151973133906722,-0.0294154658913612,0.2444054633378982
0.30082568359375,-0.156883501501102,0.157180548218917,0.7627151413232087,-0.048281654715538,-0.1634846031665802,0.2701528072357178
0.3208779296875,-0.3586762581782415,-0.021432335335575,0.8549427586436271,-0.1978465318679809,-0.0988641306757927,0.2290776818990707
0.3409287109375,-0.5051180250387638,0.075165112833213,-0.514597874110937,-0.1500853300094604,-0.1692408919334411,0.0569637343287467
0.360980712890625,-0.1468281084301415,0.0891481002772226,-0.5091290873110293,-0.1026322320103645,-0.0985182970762252,0.0001822761259973
0.38103173828125,0.1695152022003196,0.0249057470671832,-0.4060217640578746,-0.133263885974884,0.0565791949629783,-0.0182395726442337
0.401083740234375,0.3136300056843087,-0.0484573395790532,-0.4543038566678762,-0.1359006762504577,0.1404826194047927,-0.0113651547580957
0.421135009765625,0.5610638206770643,0.0048064686999656,-0.4249567661523818,-0.0574339814484119,0.0676189959049224,0.04663622751832
0.4411865234375,0.4505970380391925,0.0692068254833109,-0.1898486181169748,0.0113392071798443,-0.0092890188097953,0.0838883966207504
0.46123779296875,0.2886033721838146,0.0463734277107752,-0.0214215582132339,0.0218059010803699,0.0198636893182992,0.1178651973605156
0.481289794921875,0.1026671326044481,-0.154281812836416,-0.0394715941667556,0.0174486879259347,0.0660054311156272,0.1219948306679725
0.5013408203125,-0.0700436598999425,-0.2809686029890552,0.1606622711211442,-0.0065978094935417,0.0623944774270057,0.1010737717151641
0.521392822265625,-0.0070888714155647,-0.3033621115069836,0.1953419548362493,-0.0412115864455699,-0.0358518585562706,0.0650697350502014
0.541443603515625,-0.2113569778308272,-0.261851321396511,-0.308100903531909,0.0061644813977181,-0.0309548433870077,-0.0025265216827392
0.561495849609375,-0.0634059937174432,-0.2445041182164102,-0.426379492431879,0.066774733364582,0.0025356230325996,-0.0526694804430007
0.581546875,0.0921271252211649,-0.186411044883728,-0.059361120507121,0.0474836304783821,0.093837097287178,-0.0444858185946941
0.601598876953125,0.2046500275380909,-0.187111813564226,0.2641355050772428,0.0160865895450115,0.0890842154622078,-0.0276460833847522
0.621650634765625,0.1551793461980298,-0.119485005547665,0.2442898178786039,0.0407445803284645,-0.0183844789862632,-0.0343853160738945
0.64170166015625,0.1811070932567119,0.0977814520552754,0.2049070710390806,0.077112004160881,-0.0763387382030487,-0.0307709723711013
0.661753662109375,0.198999892821908,0.1124758574379607,0.2555330964267254,0.0741589963436126,-0.0677749291062355,-0.0114765372127294
0.6818046875,0.2029404106086119,-0.0341008609138429,0.2827075190782547,0.0081329336389899,-0.0226739160716533,0.0076184943318367
0.701856689453125,0.2461809105885214,-0.1614456035185605,0.0027554361879825,-0.0017724593635648,-0.03780472651124,0.0335267558693885
0.72190771484375,0.2038039869016967,-0.2212439646654762,-0.0770499219328165,0.02139095030725,-0.0701163709163665,0.0755004435777664
0.741959716796875,0.0073308908773586,-0.3127800377914682,-0.0279442379802465,0.0161323025822639,-0.1276066601276397,0.0845780298113823
0.7620107421875,-0.0387259908306878,-0.3300068111959844,-0.2093961991518735,0.0510165356099605,-0.1674389541149139,0.0931941196322441
0.78206298828125,-0.1686242447099648,-0.2782641663359478,-0.226928348711133,0.0895485877990722,-0.1673407405614853,0.0787050575017929
0.80211376953125,-0.3213211081761866,-0.2314498447235673,-0.088276249346137,0.0880909785628318,-0.1122486889362335,0.0235925670713186
0.822165771484375,-0.2483819094978272,-0.1993661688510328,0.0229231949478387,0.1014554873108863,-0.1120995432138443,-0.0059105576947331
0.8422177734375,-0.1546951246113516,-0.1028934704399202,0.3408645244926214,0.1189155653119087,-0.1243980154395103,0.0038673365488648
0.862268798828125,-0.0280391588552389,0.0123094556080643,0.2220323933631181,0.1325020641088485,-0.1481839418411255,0.0146744139492511
0.88232080078125,-0.0120181719107553,0.0514204591343877,0.503969512590766,0.0670961663126945,-0.0726357400417327,0.0098441001027822
0.90237158203125,0.1462968328313436,0.0437218765889527,0.6057002867937088,0.0199421122670173,-0.0923530012369155,0.0203626900911331
0.922423583984375,0.1933059189639985,0.1031218449688516,0.4746621695637703,0.0154858632013201,-0.1715426445007324,0.0445096418261528
0.942475341796875,0.1987515806166455,0.1285472685285844,0.235128606301546,0.0240387134253978,-0.2029298245906829,0.064865805208683
0.96252734375,0.1662255312714725,0.0914768994178157,0.134849199950695,-0.0077374037355184,-0.1991208344697952,0.0800803452730178
0.982578125,0.1103286345425061,0.0591063465950312,-0.101776951432228,0.0061564622446894,-0.2137257307767868,0.0889337882399559
1.002630126953125,0.050350605979748,-0.0022373442977434,-0.1956985131889581,0.0495394170284271,-0.2532915472984314,0.0852556750178337
1.02268212890625,-0.092012622862868,-0.0424102049019187,-0.0419207408845424,0.0229002460837364,-0.2279734313488006,0.0589686445891857
1.0427333984375,-0.1504442439675331,-0.0088552143678069,-0.1111287171453237,-0.0020653698593378,-0.172924056649208,0.0403995551168918
1.062785400390625,-0.0408838355848565,0.0338414405093877,-0.2424754619330167,0.0116378469392657,-0.1430213302373886,0.0528909116983413
1.08283642578125,-0.0622881138697266,0.0118078170957043,-0.0626221681296825,-0.0016843199264258,-0.1327333897352218,0.0594323687255382
1.102888427734375,-0.2027236260527744,-0.0431258606242947,-0.1415250244528055,0.0078167887404561,-0.1280067265033722,0.0329120382666587
1.122939453125,-0.1287561803052201,-0.0884799917573109,0.0670464143127202,-0.0166047774255275,-0.1405071765184402,0.0238432064652442
1.142991455078125,-0.1209259616035968,-0.0390968243039213,-0.1581236925542354,0.0209614355117082,-0.1488566696643829,0.0176790654659271
1.16304345703125,-0.0571365032602101,0.0027013290972798,-0.1447796423345804,0.0649786591529846,-0.1480093151330948,0.0330707691609859
1.18309423828125,-0.1103891142917797,-0.1062064217796549,0.1254015726476907,0.0358840487897396,-0.1277143657207489,0.0228701960295438
1.203146240234375,-0.1784992488458752,-0.0688364030020311,0.0047048166900873,0.029883362352848,-0.0764458924531936,-0.0068633067421615
1.223197265625,-0.2101419029526412,-0.0666530128146521,0.0779910021752119,0.0419204458594322,-0.0207018535584211,-0.0610463432967662
1.24324951171875,-0.0846429343450814,-0.0692128716316074,0.4386901079505682,0.0016988851130008,0.0090992581099271,-0.0952976569533348
1.263301513671875,0.0779378106832504,-0.0554791097083128,0.4462345319807529,-0.0342700332403183,0.0137288961559534,-0.0987986475229263
1.283352294921875,0.1024926984861493,-0.0380819299066439,0.2475152096658945,-0.017873577773571,-0.0008126106113195,-0.0878268554806709
1.303404296875,0.1646241604894399,0.0048038200851529,0.2678559869050979,-0.0145868128165602,-0.0092449057847261,-0.0658809393644332
1.323455322265625,0.129400067699328,0.0111885709525085,0.2989122194260358,-0.0487544201314449,0.0021370342001318,-0.0567319206893444
1.34350732421875,0.1493712079085409,-0.0016644808798097,0.1345335581302642,-0.0522682107985019,-0.0195464063435792,-0.0393972098827362
1.363558349609375,0.1221858985368162,0.0250481877451762,-0.0962654945343732,-0.0272448863834142,-0.0323447622358799,-0.0175057593733072
1.3836103515625,0.033065015060082,-0.0227689747837954,-0.2185194168061018,-0.001311695203185,-0.0066911503672599,-0.0073948656208813
1.403662353515625,0.1351124539967626,-0.1015400191375054,-0.0219558112204074,-4.45139594376e-05,-0.0266506001353263,0.0219715479761362
1.42371337890625,-0.0060972208965569,-0.1326185548217967,-0.0678314272105693,0.0244119353592395,-0.0759236812591552,0.0353607237339019
1.443765625,-0.184130971122533,-0.1669064079414121,-0.0206646023660898,0.0317610874772071,-0.0790874361991882,0.0115934759378433
1.46381640625,-0.1474212428845465,-0.2254743505105376,0.0476426256626844,0.0129710901528596,-0.0434511080384254,-0.0119424443691968
1.483868408203125,-0.1507541136343032,-0.2594088053489103,-0.0423977107465267,0.0183190125972032,-0.0298184938728809,-0.0384785160422325
1.50391943359375,-0.1039230235502123,-0.1797504544833675,0.0243248784393072,0.0295311864465475,-0.0277494844049215,-0.0400548428297042
1.523971435546875,0.0477075806576758,-0.1270236574241891,0.2784662282466888,-0.0162484534084796,-0.0326475501060485,-0.0316331200301647
1.5440234375,0.1875340575642883,-0.0237790080595761,-0.0814998870790004,0.0131695587188005,-0.0250918511301279,-0.0007340302690863
1.56407421875,0.1783737958353012,-0.0241625274844467,-0.0823813460886478,0.0376669056713581,0.0023798155598342,0.0183687191456556
1.584126220703125,0.206889623158425,0.0205065622601658,0.2488637016654014,-1.49377156049e-05,0.0413423813879489,0.0327021889388561
1.60417724609375,0.252900409835577,0.0074132719311863,0.3728331956833601,-0.0290866177529096,0.0282037314027547,0.0623479261994361
1.624229248046875,0.4109899078592657,-0.0318751476883888,0.4635428096562624,-0.0672081559896469,-0.0046628867276012,0.118896760046482
1.644281494140625,0.2814396910995245,-0.0891945697674527,0.058870706641674,-0.0498102381825447,0.0026947078295052,0.1589898020029068
1.664332275390625,0.058669338850677,-0.2080634892433881,-0.37083763795197,0.0149084450677037,-0.004058810416609,0.1455215811729431
1.68438427734375,-0.0145605864025652,-0.151410458651185,-0.3681733871787786,0.041067436337471,0.0113985575735569,0.1623782366514206
1.704435546875,0.030927345444262,-0.1060565284475684,-0.2739852834403514,0.0586677491664886,-0.0104293329641222,0.1945442855358123
1.724487548828125,-0.0441954078182578,-0.1052777991600334,-0.0849859756290912,0.068153291940689,-0.0415199026465415,0.2019811272621154
1.74453955078125,-0.1708282758265733,-0.0415802568838,-0.2639648246854543,0.1177309975028038,-0.0311042107641696,0.1781490743160247
1.76459033203125,-0.2038090466693043,0.069457073917333,-0.1475134512126445,0.1523171961307525,0.0004505338147282,0.1517725139856338
1.784642333984375,-0.3970193232391029,0.13587088941494,0.1634206299185752,0.1339697241783142,0.0277576241642236,0.0847082361578941
1.804693359375,-0.3578373596686869,0.2734676527744158,0.3207429429620504,0.092775635421276,0.0495552644133567,0.0299485456198453
1.82474560546875,-0.102094054557383,0.4089958844978362,0.3807967219084501,0.0700138658285141,0.0397642515599727,0.0201767683029174
1.84479638671875,-0.0390265538129955,0.4044792107909917,0.4409942932397127,0.0452190563082695,0.0438375361263752,0.0031967922113835
1.864848388671875,-0.1074552162643522,0.3552434707179665,0.4813157822340727,0.0263848099857568,0.0712688788771629,-0.03581428155303
1.884900390625,-0.0410750107754021,0.3142841952767223,0.5337491493046284,-0.0013186978176236,0.0651353299617767,-0.055607870221138
1.904951416015625,0.0874426480662077,0.2942431681690737,0.6319201851993799,-0.0594011135399341,0.0688325613737106,-0.0266875680536031
1.9250029296875,-0.0193150874532759,0.1395483175523579,0.3994108214855194,-0.0850839167833328,0.0595386214554309,-0.0077550914138555
1.945053955078125,-0.177118096685782,-0.0031863384185358,0.0859983675420284,-0.0802060365676879,0.0527051091194152,-0.0143739152699708
1.965105712890625,-0.2912869121793657,-0.1536841574705205,-0.1429150175064802,-0.0497923158109188,0.0557176545262336,-0.04586848244071
1.98515771484375,-0.2447061070619151,-0.2402920534793287,-0.2856663688838481,-0.0120522081851959,0.0618440471589565,-0.061105266213417
2.005208984375,-0.1720222713841125,-0.1644136230112984,-0.2560971600502729,0.0387683473527431,0.0509660206735134,-0.0611403845250606
2.0252607421875,-0.2498780298070982,-0.1156046204503625,0.0644920536547899,0.0278888791799545,0.0298330765217542,-0.0920144841074943
2.045311767578125,-0.113606468903087,-0.0572871729104313,0.0676227528959512,0.0209219083189964,0.039256677031517,-0.1111758276820182
2.065364013671875,-0.0123157300852239,0.0987294917614199,-0.0444452909260988,0.0459080338478088,0.0582642294466495,-0.1051763221621513
2.0854150390625,-0.0593786196311935,0.1207858955457806,0.0085147303670644,0.0621525458991527,0.0478260330855846,-0.0995610058307647
2.105467041015625,-0.1285388112274929,0.0031874800628516,0.1549953314006328,0.0379631482064724,0.0150126349180936,-0.1109321117401123
2.125518798828125,-0.0699257326086983,-0.0899634717807173,0.0792518158912658,0.0207457300275564,0.033203586935997,-0.1229176074266433
2.14556982421875,-0.0325859263062477,0.0178349410312715,-0.0505143817067146,0.0485878437757492,0.0593009889125824,-0.1190586760640144
2.165621826171875,0.0661486617553979,0.0815383193932473,0.2122568492799997,0.0392456650733947,0.0479987598955631,-0.1022862941026687
2.1856728515625,0.0443577587731182,0.0504066835485398,0.3277595437258482,-0.0147951953113079,0.0141975618898868,-0.0917901322245597
2.205724853515625,0.1043742379164323,0.0876373486544005,-0.0165595051348209,-0.005795253906399,0.0168944261968135,-0.0685542970895767
2.22577685546875,0.1063060827618464,0.1983876792076975,-0.0096375969171524,0.0054377121850848,0.0333950892090797,-0.0362823046743869
2.245827880859375,-0.1923383525734767,0.2699948986299336,0.0940431423097848,-0.0047610057517886,0.0442847609519958,-0.0736415609717369
2.2658798828125,-0.4159391277644783,0.3097329617131501,0.0092430446416139,-0.0033064172603189,0.0397577583789825,-0.1475058645009994
2.28593115234375,-0.1847204249156639,0.1668260909805074,0.2750432680606842,-0.0480595901608467,0.0106920823454856,-0.1756733655929565
2.305982666015625,0.1531205505046993,0.1005124570549,0.3773696700692177,-0.0853451117873191,0.0056010438129305,-0.1170121058821678
2.326033935546875,0.1681102490395307,0.0140361241370439,0.3268810073256492,-0.0900965109467506,0.0369301587343215,-0.0528084598481655
2.3460859375,-0.2462955316778272,-0.0759624554896727,0.0114127898961305,-0.047425489872694,0.0994901284575462,-0.079268530011177
2.366137939453125,-0.4322254419811069,-0.1383124647476244,0.2626899824440479,-0.0661116987466812,0.1017366796731948,-0.14476078748703
2.38618896484375,-0.0852803919984027,-0.1802357720485888,0.5111632234871387,-0.1424971967935562,0.0749875754117965,-0.1465921700000763
2.40624072265625,0.2720200477819889,-0.1069407274035736,0.2367757889866829,-0.1616798192262649,0.0443921908736228,-0.0779347792267799
2.426291748046875,0.2638598664736375,0.0919997085823677,-0.432433385643363,-0.0682547315955162,0.024584187194705,-0.0341943576931953
2.446343994140625,-0.0182414303397759,0.2357339883161708,-0.2723743411123752,-0.0104950089007616,0.0479161255061626,-0.0446115098893642
2.46639501953125,-0.089944292156212,0.2880377193913795,0.1717985821634531,-0.047693733125925,0.0390643775463104,-0.0907832086086273
2.486447021484375,-0.0006438508614897,0.2092732668919488,0.1705722552388906,-0.1012323573231697,0.0200622975826263,-0.1118402257561683
2.506498779296875,0.0446967814691364,0.0559962654502131,-0.2431172669678926,-0.0760341733694076,-0.0364453792572021,-0.0957974717020988
2.5265498046875,-0.2280066454671323,0.0927723551889881,-0.4485007233470678,-0.0211407970637083,0.0042271078564226,-0.1026690229773521
2.546601806640625,-0.3817315550731495,0.0664662169717019,-0.2046370219260454,-0.0125824473798275,0.0819462165236473,-0.1400694251060485
2.56665283203125,-0.3177676534783095,-0.0143542319091968,-0.0582177956908941,-0.0030963304452598,0.0477028042078018,-0.1870723217725753
2.58670458984375,-0.0316538330879062,-0.0106844253892311,0.1130506251186132,-0.0324678942561149,0.0193831659853458,-0.1920797675848007
2.606755859375,0.2766805869389325,0.0452659048602916,-0.0042547348350286,-0.0370097532868385,0.0031453152187168,-0.1513558030128479
2.626807861328125,0.4583522552758455,0.0723249757701531,-0.0572457357883453,-0.0089860809966921,0.0163393076509237,-0.0801788941025734
2.64685986328125,0.4709751150814816,-0.0882726143506355,0.1441571265220642,-0.0118893198668956,0.0275299977511167,-0.021995685994625
2.6669111328125,0.3398991135265678,-0.0598884140505455,0.2514543026804924,-0.0300118960440158,0.0143772829324007,0.0184668526053428
2.686962890625,0.2640006997164338,-0.1756798440435901,0.2735550753295421,-0.0587338209152221,-0.0163079239428043,0.0455272346735
2.707013916015625,0.2367885754030197,-0.208963506823033,0.0265717805832624,-0.0447133779525756,-0.0275856740772724,0.0691435784101486
2.72706591796875,0.2960880288507789,-0.1268613064693287,-0.1693827531933784,0.0010168610606342,-0.0096292486414313,0.1016176640987396
2.747116943359375,0.306140380581282,-0.1493007456213701,-0.0386608623057603,0.0193118695169687,0.0001534125767648,0.1309410631656646
2.7671689453125,0.2298558900630101,-0.1666605616878718,-0.070209846779704,0.0356419794261455,-0.020122742280364,0.1479824334383011
2.787220703125,0.0843500523457303,-0.1031773197494447,-0.1002080946803092,0.0442981943488121,-0.0247920714318752,0.1540122628211975
2.807271728515625,0.0192514476325362,0.1247846463257446,-0.0543587821751832,0.0525561720132827,-0.0394682474434375,0.163114845752716
2.827323974609375,-0.0844170531673356,0.1617884621394798,0.1057686514168977,0.0386647470295429,-0.0661051124334335,0.1546157598495483
2.847375,-0.2602649472542107,0.1543476263479329,-0.070687401163578,0.0664194747805595,-0.0378843359649181,0.1089623942971229
2.867427001953125,-0.2206616895318031,0.1054905651278793,0.06658055036664,0.074088454246521,-0.0170052628964185,0.0705846473574638
2.887477783203125,-0.13935776341632,0.07827005657861,0.353189168536663,0.0338853262364864,-0.0151760801672935,0.0564632378518581
2.90752978515625,-0.0746329239189624,-0.0053091027261689,0.4193506167083978,-0.0126011352986097,-0.0136955929920077,0.0456129238009452
2.927580810546875,0.0602339212862774,-0.0980694934827275,0.2918652235239744,-0.0480827763676643,-0.0365223810076713,0.0628305897116661
2.947633056640625,-0.0753387706333771,-0.1431862904622219,-0.305353650650382,-0.0031327065080404,-0.0123555436730384,0.0610417388379573
2.967684814453125,-0.1618974024066701,-0.1450218718589283,-0.4026367977946996,0.0562154948711395,0.0047708456404507,0.0263076312839984
2.98773583984375,-0.1343052657997235,-0.0501175644088536,-0.0301788651645183,0.0563943646848201,-0.0113270133733749,-0.0019337590783834
3.007787841796875,-0.0580535815725102,0.0722571529646404,0.2340004790544509,0.0160014331340789,-0.0454171821475029,-0.0272634178400039
3.0278388671875,0.1447053715219721,0.1292429957077838,0.0418733946114778,0.0168044548481702,-0.0400013364851474,-0.0334670543670654
3.047890869140625,0.2198837274292484,0.1636926335266791,-0.2552197926938533,0.0801757201552391,-0.0064108092337846,-0.0325770564377307
3.067941650390625,0.3815368362186476,0.1509055413363501,0.1178162320852279,0.0828954502940177,0.006308376789093,0.0092906290665268
3.08799365234375,0.3087008787190541,0.0386519483469426,0.453817534455657,0.0240507125854492,-0.0158690512180328,0.0394605472683906
3.108045654296875,0.1080624249098822,0.048565403063409,0.4219458938986062,-0.0224279463291168,-0.0121350605040788,0.0419673547148704
3.1280966796875,-0.0338870355000719,0.0191763936519273,0.1956067432522773,-0.0289705991744995,0.0220125671476125,0.0356285311281681
3.148148681640625,-0.0741966879261657,-0.063041361656133,0.1232142917364835,-0.0349990278482437,0.0344417914748191,0.0248637627810239
3.16819970703125,-0.1297699239250272,-0.0210776401463896,-0.0605874474316835,-0.0151056833565235,0.0395398363471031,0.0123386168852448
3.188251708984375,-0.0883591418566182,0.0585080473417416,-0.1027519339442253,0.008485272526741,0.0311279650777578,0.0108479475602507
3.208302978515625,0.0294249415246769,0.0701260592200793,0.1099912375479936,0.0007699050474911,0.0279339011758565,0.0148848630487918
3.22835498046875,0.0505905887480825,0.0727239119598641,0.1767781241416931,-0.0148137211799621,0.0246645156294107,0.0108732804656028
3.24840576171875,0.0514521009482443,0.0843082955632358,0.1160831246823072,-0.0208105519413948,0.0327074006199836,-0.005561257712543
3.268457763671875,-0.0411244028750807,0.0881209126539528,-0.1714285798072815,0.0187126547098159,0.0651850700378418,-0.0261627398431301
3.2885087890625,-0.0231595609869807,-0.0001840878626331,0.0883884775489568,0.002568807452917,0.0572795905172824,-0.0355348698794841
3.308560791015625,0.0604341565661132,0.0491262883491814,0.1775011777192354,-0.0271485298871994,0.0397373810410499,-0.031243784353137
3.32861279296875,0.1357466602470725,0.0492422976779751,0.087259765779972,-0.0342910662293434,0.034250158816576,-0.0147348809987306
3.34866357421875,0.0605696560466662,0.0110911019274033,0.0644248336374759,-0.0432303883135318,0.0223675947636365,-0.0017885898705571
3.3687158203125,-0.0252515282975509,-0.0360003378596156,-0.1017313587248325,-0.0209955312311649,0.0110346898436546,-0.0015716056805104
3.388766845703125,-0.0602814136898145,-0.0321719752104952,-0.0603968932956457,-0.0095928916707634,0.0061753606423735,-0.0085727870464324
3.40881884765625,-0.088128255710192,0.0415331846053712,-0.1355406893461942,0.0199471395462751,0.0222129356116056,-0.0175386555492877
3.42886962890625,-0.0664031479731202,0.0514496715291403,-0.0286497559010982,0.0306231081485748,0.0183214303106069,-0.0181346423923969
3.448921630859375,0.0449472856314852,0.013769984014146,0.1369073015242815,0.0144912619143724,-0.004388490691781,-0.0057314680889248
3.468972900390625,-0.0725063967516645,-0.0519401401935145,0.0193441674172878,0.0115118902176618,-0.0112132225185632,-0.0246587190777063
3.48902490234375,-0.0658023325357586,-0.0163021876391954,-0.1140028112769126,0.0408886261284351,0.0105431489646434,-0.0415691249072551
3.50907568359375,0.0440282345578074,0.0162416348246857,0.100533088850975,0.0336670540273189,0.018739303573966,-0.0207915753126144
3.529127685546875,-0.0117001554701477,0.0061893926920369,0.2185480583786964,0.0042123547755181,0.010780356824398,-0.0152496006339788
3.549179931640625,-0.0296569601822644,-0.0445090403446927,0.1727501837998628,-0.0179866459220647,-0.0089898081496357,-0.0129419118165969
3.56923095703125,-0.0155646123459562,0.0122525103895924,-0.0411672921687364,-0.0033404177520424,-0.002798976143822,-0.0149835534393787
3.589282958984375,-0.1044900097832083,0.027411738538742,-0.2126058088481426,0.0412369333207607,0.0155000304803252,-0.0269460082054138
3.609333740234375,-0.1033272496141493,0.0074674315375275,-0.0396475352555513,0.0552177168428897,0.017066154628992,-0.0347104221582412
3.6293857421875,-0.010536116659455,-0.0082296663479879,0.202768889966607,0.0245500355958938,-0.0068957759067416,-0.0236079692840576
3.649436767578125,0.0639257250089198,0.0330276513249147,0.2122130101382732,-0.0013275529490783,-0.0191932544112205,-0.0151092521846294
3.66948876953125,-0.0645228141192346,0.0155012008540797,-0.0928524712204933,0.0202721878886222,-0.0051233572885394,-0.0308974366635084
3.68953955078125,-0.0551988497285172,0.0094708163823466,-0.1042296052813529,0.048942431807518,0.0131848286837339,-0.0413525439798831
3.709591552734375,3.58384983614e-05,0.0067207367894938,0.1356651925086975,0.0404079370200634,0.006094520445913,-0.038307424634695
3.729642822265625,0.0133013070564717,-0.008612240491365,0.2797282110065222,0.002154920483008,-0.0078038685023784,-0.0369296036660671
3.74969482421875,-0.0072486924866214,1.50331723503e-05,0.091426237809658,0.0012185538653284,-0.0056595928035676,-0.0460745245218277
3.769745849609375,0.0581899943685159,0.0204532566037727,-0.0067629182636737,0.0117794917896389,-0.0003395108506083,-0.0351384244859218
3.7897978515625,0.0546300368646159,-0.0009425689465831,0.0042862990170717,0.0193192139267921,-0.0007691043429076,-0.0267756655812263
3.809848876953125,0.026368914954923,0.0326567995853722,0.0141267250299453,0.0241292100399732,-0.0006247041746973,-0.0215461514890193
3.82990087890625,-0.0147094933539628,0.0473772161921486,0.0117220019757747,0.0332770273089408,0.0086320862174034,-0.0187094174325466
3.849952880859375,0.044131037345156,0.0166381963942199,0.0715630149543285,0.0228355713188648,-0.0031581574585288,-0.0083365086466073
3.870003662109375,-0.0334889760931953,0.0035958873338066,0.0643155280441045,0.0186390876770019,-0.0126850120723247,-0.0148561540991067
3.8900556640625,-0.0712080640368163,-0.0187807979134842,0.0272375510156154,0.0237102024257183,-0.0106107108294963,-0.0259132664650678
3.910106689453125,-0.0467506452590227,0.0443634030626155,-0.0268371535211801,0.0466073080897331,0.0088537763804197,-0.0360104776918888
3.930159423828125,0.1097443866474554,0.0143918696389999,0.2194727720081806,0.0236766450107097,0.0060135396197438,-0.0213960129767656
3.95021044921875,0.064434222520329,0.0369632006755564,0.2619932323515415,-0.0021487639751285,0.0065851104445755,-0.0166495963931083
3.970262451171875,0.0755968735802918,-0.0319700685633812,0.1316658937394619,-0.01893269456923,-0.0078333131968975,-0.0120991878211498
3.990313232421875,0.02639558376614,0.0086747341012116,-0.0604886632323265,-0.0002525146119296,-0.0001358743757009,-0.0070713376626372
4.010365234375,0.042013825995475,0.0831934022570494,0.0049234278768301,0.0123036950826644,0.0100125186145305,-0.0038300754968076
4.03041650390625,-0.0037244638832286,0.0599592781965155,0.0967033014297485,0.0065210321918129,0.0068520517088472,-0.0035081643145531
4.050468505859375,-0.0345723508831113,0.0078841865117195,-0.0569563974529504,0.0196874644607305,0.0081527978181838,-0.0140180271118879
4.07051953125,0.0066370268616825,0.0410613110436126,-0.0648649786204099,0.0425755642354488,0.0167451743036508,-0.0086082853376865
4.090571533203125,0.0647652445729821,0.0492839631289243,0.188965990063548,0.0264320150017738,0.0175563730299472,0.0037341341376304
4.11062255859375,0.0454261917222291,0.0551035178615711,0.1266138710469007,0.0268513839691877,0.0167009308934211,0.0002617053687572
4.130674560546875,0.0075539955761283,-0.0031481252999976,0.1073679033070802,0.0158227644860744,0.012816559523344,-0.0062363371253013
4.150725341796875,0.0388296064687892,-0.028218214349728,0.0189513687074184,0.0181618332862854,0.0033726436085999,0.0073184822686016
4.17077734375,0.0366106152450665,-0.0276871579466387,0.1199643500298261,0.0100346039980649,0.0045386222191154,0.0141955967992544
4.190828369140625,0.0135015788689255,-0.0561050687200855,0.0746446143567562,-0.0042533501982688,0.0018986761569976,0.0126090887933969
4.21088037109375,0.0870792215812951,0.0015012714084237,-0.1109352403998374,0.0200503133237361,0.0009557218290865,0.0277110394090414
4.23093115234375,-0.0191161308150738,-0.0083567450600676,-0.1124789627104997,0.0459425039589405,0.0064058685675263,0.0275042802095413
4.250983154296875,-0.016434417450428,-0.01656993519729,0.1625087757706642,0.0223656501621007,0.0080427387729287,0.0241143107414245
4.271035400390625,-0.0716244993505999,-0.0001243022331036,0.0845025760263204,0.0139433089643716,-0.0061570852994918,0.0240845829248428
4.29108642578125,-0.0370050213901326,-0.0402574655811302,0.0956786345571279,-0.0029205454047769,-0.0050484300591051,0.0190232396125793
4.311138427734375,-0.0802737428175285,0.0019031302075833,0.0560223314732313,-0.0056853787973523,0.001953131519258,0.0144237633794546
4.331189453125,-0.0456211297724395,-0.0251049959663301,0.0876116479575633,-0.0057246517390012,-0.0001165834255516,0.006174421403557
4.351241455078125,-0.0374179861051961,-0.0390344174590427,-0.0096609777927398,0.0039931125938892,-0.0007571093738079,0.0053637255914509
4.37129248046875,0.0524543733259662,-0.0370901971892453,-0.0564309122741222,0.01970143802464,-0.0067068310454487,0.0186167135834693
4.391344482421875,0.0749365099754184,-0.0199259493606165,0.0442535677462816,0.0253837779164314,-0.0173709038645029,0.0329211838543415
4.4113955078125,-0.0162612893732264,-0.0071095580105669,0.1376332777112722,0.0150384940207004,-0.0034746336750686,0.027343925088644
4.431447265625,-0.0549399430640041,-0.0211257536044344,0.1378787769049406,0.0048214336857199,-0.0035700669977813,0.0215422604233026
4.451498291015625,-0.0229823412565514,-0.0335184213833883,0.0990834745645523,0.0002034504432231,-0.006947174668312,0.020980630069971
4.471550537109375,-0.0208254554836079,-0.0146961041494272,0.1208808803528547,-0.0084519945085048,-0.0129578132182359,0.021284133195877
4.491601318359375,-0.0075608637083321,0.0401185137681663,0.0244727624773979,-0.0047263116575777,-0.0080185886472463,0.0284849572926759
4.5116533203125,-0.0372992550963535,-0.0198264345088973,0.0120014034390449,0.0023610177449882,-0.0075003253296017,0.0272229835391044
4.531704345703125,0.0007976897163316,-0.0427486065434291,0.0295411517828702,0.0006367487367242,-0.0163791831582784,0.0220852084457874
4.55175634765625,-0.0048356399955227,-0.0009523140224628,-0.0849579185783863,0.0234354734420776,-0.0172668769955635,0.0242214649915695
4.5718076171875,-0.0176521592097356,0.010881660427805,-0.0856190128356218,0.0463063567876815,-0.0154695436358451,0.0222023241221904
4.591859619140625,-0.0125170248109847,-0.0149317578025162,0.0651063861608505,0.0424860045313835,-0.01697314158082,0.0231715478003025
4.611910400390625,0.0357480435989797,-0.0287119709497317,0.2228343573957681,0.0080739222466945,-0.0331032499670982,0.0251380242407321
4.63196240234375,0.0013196312312036,0.0398884861382655,0.0689332509726285,0.0101329060271382,-0.0189580172300338,0.0303230993449687
4.652013427734375,-0.0591750964157283,-0.0476970409973524,-0.0602244593381881,0.0289737042039632,-0.0069413026794791,0.0159316435456275
4.6720654296875,-0.120740266305767,-0.0127326037904247,-0.0798316616058349,0.0489173494279384,-0.0016024075448513,0.0026094811037182
4.6921162109375,-0.015191285521537,0.0075933046732097,0.0730120447188615,0.0345206297934055,-0.0164466481655836,-0.0008803571108728
4.71216845703125,0.0528812204359099,0.0280592791946604,0.0928057094693183,0.0226958189159631,-0.019601359963417,0.0039416961371898
4.732219482421875,0.0603243029834702,-0.0092176179394125,0.1211281331121921,0.0133560355752706,-0.0309336762875318,0.0139941303059458
4.752271484375,-0.0137618737729266,-0.0130518623400479,0.1940577602446079,-0.010310941375792,-0.0213063992559909,0.012512675486505
4.772322265625,-0.0938070319989696,-0.0059098816309124,0.0804436560243368,-0.0115641923621296,-0.0027144399937242,-0.0035044413525611
4.792374267578125,-0.0483049985615536,0.0191050431654788,0.1526426307946443,-0.0212164483964443,0.0024049328640103,-0.0112773394212126
4.812425537109375,0.026888774110563,0.0311612455316819,0.1391881059378385,-0.0283006448298692,0.0114103406667709,-0.0096836667507886
4.8324775390625,0.0846782613867893,0.0282866216771304,-0.0007955342918634,-0.0206611491739749,0.0234527494758367,0.0013197138905525
4.852528564453125,0.0648874827131629,0.0348739093792624,-0.0060012862414121,-0.009064570069313,0.01359498873353,0.014136042445898
4.872580322265625,0.0268327330743893,0.0048877720415592,-0.0003501286119222,-0.0074101341888308,0.0130334701389074,0.0080691929906606
4.89263134765625,0.0065177478635683,0.0573769244199618,-0.1525713191241025,0.0371423624455928,0.0296035520732402,-0.0024434379301965
4.912683349609375,-0.0185263116957619,0.0233896982147358,-0.0365647668093442,0.0553163774311542,0.0227069519460201,-0.0058735543861985
4.932734375,0.0006369461966678,0.0008892039246857,0.1035854621589183,0.0491935685276985,0.0124255055561661,-0.0053039360791444
4.9527861328125,0.0279032849153503,-0.0646225664329715,0.1450508604913949,0.0391541719436645,0.0020809546113014,-0.0111985113471746
4.972837158203125,0.0138301897687837,-0.0284683349195867,0.0100637133747339,0.0644837617874145,0.0136878099292516,-0.0130038680508732
4.99288916015625,-0.004644757065922,-0.0231077394681982,0.0414040235340595,0.0879100561141967,0.0212379321455955,-0.0139611428603529
5.0129404296875,0.1295174104686826,-0.1205114077196456,0.2952215482145547,0.0528542101383209,0.007819315418601,-0.005408233962953
5.032992431640625,0.1155966928722336,-0.0668771038941107,0.2896533926934003,0.0241772141307592,-0.0015815654769539,0.0015191459096968
5.053043212890625,0.056042680141516,-0.0829114526436664,0.0879950943171977,0.0289751961827278,0.0083363652229309,0.0005971938371658
5.07309521484375,0.0981332611676305,-0.0479513445519842,-0.0090682725965976,0.040850356221199,0.0149940168485045,0.0128395790234208
5.093146240234375,0.1438008969629183,-0.0461776676766574,0.0100531919807195,0.0479064621031284,0.0070664267987012,0.0391926914453506
5.113198486328125,0.0509180306041613,-0.0319516835233196,0.0564981322914361,0.0509435348212718,0.0025444882921874,0.0479408055543899
5.133249267578125,0.0004473053760826,0.0075644987038336,0.0416799178659915,0.0488903522491455,-0.005889163352549,0.047669731080532
5.15330029296875,-0.0520718402817845,0.0172420440388843,0.0773170484364032,0.0366576313972473,-0.0029899768996983,0.0519082844257354
5.173352294921875,-0.0190317769998684,0.0091534301294013,0.1617038891285658,0.0126173999160528,-0.0011739050969481,0.0544404573738575
5.1934033203125,-0.0983287837397307,0.0366113458974286,0.0490437246322631,0.0071430392563343,0.0164615530520677,0.0432131960988044
5.213455078125,-0.0949230669494718,-0.0009719868373125,-0.0575602085649967,0.0146979577839374,0.0261863023042678,0.0321181677281856
5.23350634765625,-0.0624707404276356,0.0006233925953507,0.0362198988944292,0.00236969999969,0.0209792703390121,0.0331668220460414
5.253558349609375,-0.0146730338010936,0.003825805365853,0.0930915406733751,-0.0190799441188573,0.0176852382719516,0.0351960808038711
5.273609375,0.012847754602693,-0.0306788871085271,0.0379623586475849,-0.0296761784702539,0.0134644135832786,0.0375506803393363
5.2936611328125,-0.0528515194173902,-0.0185984636165201,-0.007426350608468,-0.0303309094160795,0.0168783050030469,0.0342096500098705
5.313712158203125,-0.0688695015540346,-0.001083064262662,-0.0614431874781846,-0.0198528580367565,0.0271633639931678,0.0270293671637773
5.33376416015625,9.61173182353e-05,-0.0058992871716618,-0.1221031156241893,0.0001120737288147,0.0273577496409416,0.0297730229794979
5.353815185546875,-0.038130152962543,0.0200125316655263,-0.0554249501019716,0.0071063693612813,0.0140464790165424,0.032167837023735
5.373867431640625,-0.0531563110502436,0.0074212725745514,0.0253869547128677,-0.0026433523744344,0.0002219430170953,0.0325583890080452
5.393918212890625,-0.0932902415832504,0.0233465349264442,-0.0536503416448831,0.0151565857231616,0.0078109232708811,0.0215988811105489
5.41397021484375,-0.1108592890867963,0.060524209469743,-0.0141787474781274,0.0284981131553649,0.0258302073925733,0.0081732217222452
5.434021240234375,-0.0395086017088964,0.0180296507526189,0.1869283467561006,0.0083548873662948,0.0138009870424866,0.0100111691281199
5.4540732421875,-0.0570491537703201,0.0194921245206147,0.2043605430722236,-0.0134515911340713,0.0075857853516936,0.0127461999654769
5.474124267578125,-0.0596120630608871,-0.0452742160309106,0.0748982968568801,-0.0111832171678543,0.0136065743863582,0.0079432232305407
5.49417626953125,0.0035323388446122,0.0009552183656021,0.0931757118254899,-0.0074699879623949,0.0288078151643276,0.0059602661058306
5.514227294921875,0.0318325141230598,0.0325482429106719,0.080812489336729,-0.0043397084809839,0.0250548869371414,0.0149249983951449
5.534279296875,0.0361477835062891,-0.0318220657942816,0.0950292307376861,-0.0090352380648255,0.0150068495422601,0.0181291811168193
5.554330078125,0.0352415919141843,-0.0379660119093954,-0.0184480953603982,0.0027407438028603,0.0129882544279098,0.0239028818905353
5.574381103515625,0.0312700944673269,-0.0098177209907211,0.0358943202018737,0.0100900037214159,0.0163872484117746,0.0334479175508022
5.59443310546875,-0.0461951485344208,-0.0229293324276804,0.0482955366134643,0.0158247277140617,0.0016405102796852,0.0269161481410264
5.614484130859375,-0.0765521467448212,-0.0501223136492073,-0.0168096805036067,0.0327352285385131,-0.0005813832394778,0.0138479163870215
5.634536376953125,0.0750374861318618,-0.042100810159184,0.0610632482498884,0.0366281531751155,-0.0044079627841711,0.0235939212143421
5.65458740234375,0.0164052644211798,-0.0060430795565247,0.1546943026274442,0.0205415915697813,0.0016439575701951,0.0242398399859666
5.674639404296875,0.0010658756658434,0.0337881417028605,-0.0640700288504362,0.0307880919426679,-0.0008093160577118,0.0194679182022809
5.6946904296875,0.0775499256105162,0.0848845245486125,-0.0186971016854047,0.0309727303683757,-0.0082657514140009,0.0343052856624126
5.714742431640625,0.0103915753559209,0.100861992011778,0.1055436104893684,0.0210712980479002,-0.0167610347270965,0.0381755270063877
5.734793212890625,-0.0173037476308643,0.0488981786817312,0.0355155500173568,0.0328535437583923,-0.0150259193032979,0.0258100721985101
5.75484521484375,0.0554693737655878,0.1020442240662872,0.0810638337492942,0.0320529676973819,0.0163383446633815,0.032074324786663
5.774896240234375,0.1022552364684641,0.0520747263586148,0.2946539774596691,-0.0003471586387604,0.0299620777368545,0.064959704875946
5.7949482421875,-0.0128457087760791,-0.0759079853560775,0.3602379180043935,-0.032886054366827,0.0308821853250265,0.0817620158195495
5.8149990234375,-0.3321185426529496,-0.1525120997501537,0.2012070474773645,-0.0410464666783809,0.0515335351228714,0.0547834001481533
5.83505029296875,-0.4861813059112057,-0.2493556133681908,0.1532569633007049,-0.057165116071701,0.0639945939183235,-0.0078152669593691
5.85510205078125,-0.3477997305832803,-0.2647492895940319,-0.0344108036458492,-0.0473037809133529,0.0569794178009033,-0.0628261566162109
5.8751533203125,-0.0473693434129469,-0.1989618988990783,-0.177382519775629,-0.009352371096611,0.0334004871547222,-0.0820068344473838
5.895205322265625,0.2498087091642431,-0.1452542375763878,-0.1758598402529954,0.0142841534689068,0.0114585841074585,-0.0578846260905265
5.91525634765625,0.2567823293028399,-0.0907220350630581,-0.2852262239009142,0.0592386461794376,-0.0011721886694431,-0.0263143144547939
5.935307861328125,0.1998213835389353,-0.1114298555163666,-0.2083586727976799,0.0962768346071243,-0.0183802358806133,0.0042777475900948
5.95535888671875,0.1205860986573621,-0.1383328773479908,0.0725824211299419,0.0882387086749076,-0.0328731574118137,0.0205541905015707
5.975410888671875,0.0694575305750593,-0.114264238692075,0.2779068407982588,0.0557243749499321,-0.0344402268528938,0.0318152345716953
5.9954619140625,-0.0420454632427543,-0.0574326001299545,0.2377542786300182,0.0350337848067283,-0.0290163028985261,0.0419264547526836
6.015513916015625,-0.0128049383742734,0.0147479256682097,0.2560053901135921,0.0075656920671463,-0.025426011532545,0.0647036433219909
6.03556494140625,-0.0767458974849432,-0.0299074278119951,0.1629980205923318,-0.0083542801439762,-0.020682405680418,0.070506565272808
6.055616943359375,-0.222340801725164,-0.0626540976379066,-0.029681437036395,0.0049008224159479,-0.0268685799092054,0.0532822757959365
6.07566796875,-0.1648673946607858,-0.0274700445972383,-0.0180097039431333,0.023162368685007,-0.0271456316113472,0.0437644347548484
6.095718994140625,-0.0441246624032966,0.0057300315519794,0.1902221276044845,-0.0114776184782385,-0.0204194691032171,0.0450461842119693
6.11577099609375,0.0661314548922702,-0.0497179340993985,0.1724894870370626,-0.0428239069879055,-0.0331191681325435,0.0499564185738563
6.13582177734375,0.0195255883987993,0.0617433029359206,-0.1622492480516433,-0.0069100968539714,-0.0292519088834524,0.0525617599487304
6.155873779296875,-0.0040065322276204,-0.0191300862751901,-0.041897360008955,0.0065786587074398,-0.0180685631930828,0.0591566748917102
6.1759248046875,-0.2066212545458227,-0.2415562281962484,0.2133282779037952,-0.0335309319198131,-0.0191788673400878,0.0193736441433429
6.195976806640625,-0.2098845306580886,-0.2236033324742689,0.0356131651729345,-0.0315029509365558,0.0026200884021818,-0.0142766945064067
6.21602783203125,0.1043955729654058,-0.1485050195332616,-0.0756610979229211,-0.0013825290370732,0.0226749368011951,-0.0083897449076175
6.236079833984375,0.2311710643148049,-0.1781872968198731,0.0731821405887603,0.002994809532538,0.009518688544631,0.0292678177356719
6.256131103515625,0.0604487696133553,-0.3336134573858231,0.218185070285201,-0.0230998583137989,-0.0134420376271009,0.0264759287238121
6.27618212890625,0.0712054702209308,-0.3480012079721316,0.0216419229656457,-0.0082588279619812,-0.0242479145526886,0.0090356180444359
6.296234130859375,0.188266244296357,-0.26477709091641,-0.2828442972004413,0.0638880729675293,-0.0319412536919117,0.0124830799177289
6.316284912109375,0.3415195908678695,-0.1800193345526233,-0.1983779615312814,0.1236087754368782,-0.0390051193535327,0.0412914901971817
6.3363369140625,0.335540699121356,-0.1466095611754804,0.1300216336637735,0.1304205060005188,-0.0475880727171897,0.0753502249717712
6.356387939453125,0.3317781682500615,-0.1096412550665438,0.5574450821906328,0.0729635432362556,-0.0406018383800983,0.1108275949954986
6.37643994140625,0.1632555390173569,-0.0125613023441284,0.5255214191854,0.018780417740345,-0.0273285079747438,0.1326215714216232
6.39649072265625,-0.0860313199635595,0.0489249936234205,0.2492079850584268,-0.000405621016398,-0.0235687736421823,0.1328925192356109
6.416542724609375,-0.1547452290970832,0.0048501434449106,0.0966162076681852,-0.0136906607076525,-0.022231351584196,0.1267588883638382
6.43659375,-0.2584075193518773,0.0534310728710144,-0.0051408700197935,-0.0141162108629941,-0.015234226360917,0.1047770231962204
6.45664501953125,-0.2509892789846286,0.0567165242824703,-0.120499772080779,0.0024563127662986,-0.008120073005557,0.0886220559477806
6.47669677734375,-0.1706432015832513,0.0422583753410726,-0.0807172122687101,0.0104304989799857,-0.012596633285284,0.0774436742067337
6.496747802734375,-0.093891385814175,-0.0461062098756432,-0.0192968211442232,0.0113139525055885,-0.0221681483089923,0.0705405920743942
6.516800048828125,-0.2686903919026255,-0.0743247712852433,-0.0363701210200786,0.0298711210489273,6.22025690972e-05,0.025831276550889
6.53685107421875,-0.1286537793766707,-0.074075838025473,-0.0004594342052936,0.0417709201574325,0.0531564652919769,-0.0069177811965346
6.556903076171875,0.157344123016484,-0.0345364758521318,0.1554915904849767,0.0263390019536018,0.0434503220021724,0.0110442750155925
6.576953857421875,0.274993291439116,0.0334074718222022,0.2352770748615264,0.0080326795578002,0.0179500970989465,0.047365665435791
6.597005859375,0.2408610490063205,-0.059237019203417,0.2088736365824937,-0.019792977720499,0.0106706544756889,0.0662975758314132
6.617056884765625,0.0880458015911281,-0.1793543313052505,0.1683189233541488,-0.0428538545966148,-0.0058136787265539,0.0789878740906715
6.63710791015625,-0.1004431090125814,-0.1193516249589621,-0.0514379262924194,-0.0224522538483142,-0.0135400751605629,0.06721942871809
6.657159912109375,-0.1088042927857488,-0.057825106578879,-0.2804752299815416,0.0373836196959018,-0.0066342810168862,0.0322472974658012
6.6772109375,0.1334946800692006,0.0524422079641371,-0.0805669901430606,0.0679801627993583,-0.0268143005669116,0.0509535744786262
6.697262939453125,0.3034704672522842,0.1422898713454604,0.3420814990669488,0.0382199734449386,-0.0443383492529392,0.0881698876619339
6.71731396484375,0.2048737532913684,0.08372472352162,0.6745423523515462,-0.0488544814288616,-0.0428299009799957,0.1096466109156608
6.737365966796875,-0.0903344970501959,0.0029909985095262,0.5276841501772404,-0.1215855851769447,-0.0288386009633541,0.0946177691221237
6.7574169921875,-0.2813802890624851,-0.0359860901385545,0.1928150667071342,-0.1444182842969894,-0.0137766785919666,0.0676184669137001
6.777468994140625,-0.2452594666283577,-0.0736624714516103,-0.054381578528881,-0.1358564645051956,-0.0299952812492847,0.0498594790697097
6.79752001953125,-0.0841628226779401,-0.0118825993649661,-0.2249579254209995,-0.100005142390728,-0.039973147213459,0.0536024197936058
6.81757080078125,0.0302493000522255,0.0970199661634862,-0.2440513329476118,-0.0705868676304817,-0.0299146026372909,0.0584952123463153
6.837622802734375,-0.0051391529867425,0.152032572604902,-0.3016577187418937,-0.0279925856739282,-0.0104868281632661,0.0481425411999225
6.857674072265625,-0.0282702915968373,0.0160274440847337,-0.0768576142311096,-0.0239808596670627,-0.0164687689393758,0.0309832952916622
6.87772607421875,-0.0795228148523718,-0.0062737465072423,-0.042848377123475,-0.0163913760334253,-0.0028292690403759,0.0164255574345588
6.89777685546875,-0.0798696555286645,-0.0221932732380926,0.0884065977275371,-0.0232421327382326,0.0069815288297832,0.005406895186752
6.917828857421875,-0.1071196276344358,-0.0516248271666467,0.1704196950256824,-0.0421780012547969,0.0006521134637296,-0.0145221706479787
6.93787939453125,-0.0100545436875894,-0.0069751362422481,0.0116793318778276,-0.0248195435851812,-0.00783755723387,-0.0134849026799201
6.957930419921875,0.0422060240993276,-0.0660432651521638,0.0355231488019227,-0.019443305209279,-0.0032265181653201,-0.0142816882580518
6.977982421875,0.0409105043960735,-0.0502598589563742,0.037145197045803,-0.0098746214061975,0.013910561800003,-0.0228736437857151
6.998033447265625,0.1390738684410229,-0.0159107954351231,0.1676028840392827,-0.0203389097005128,0.0005808202549815,-0.0170306377112865
7.01808544921875,0.2049760446220636,0.0200582339707762,0.2622790635555982,-0.0490917712450027,-0.021456703543663,0.0025071124546229
7.03813671875,0.1687510311610996,0.043474619263038,0.1392775377869606,-0.0572078712284565,-0.0254557579755783,0.0204429365694522
7.058188720703125,0.0163428667094558,-0.0772558015021495,0.03668459379673,-0.0585546717047691,-0.0261535178869962,0.0136959832161664
7.078239501953125,-0.0155819653395563,-0.0264843945607543,-0.1307341658473014,-0.0315482728183269,-0.0008791731670498,0.005270907189697
7.09829052734375,0.1333359823761507,0.1233881504660472,-0.1576034680724143,0.0060182902961969,-0.003083768999204,0.0299528855830431
7.118342529296875,0.1499153977878391,0.0758454780464991,0.2129267113655805,-0.0198516733944416,-0.0075632901862263,0.0368614234030246
7.138393310546875,0.1107970009729266,0.0148233472582884,0.3165320472687483,-0.0705179572105407,-0.0068069547414779,0.0467577278614044
7.1584453125,0.0044361923491582,-0.0579427598754875,-0.0423088634192943,-0.0590168163180351,-0.0021014395169913,0.0435811802744865
7.178496337890625,-0.1348424048837274,-0.1326132393258623,-0.2718669761121273,-0.0109558887779712,0.0141428504139184,0.0251874923706054
7.19854833984375,-0.107928240603581,-0.1264169054363854,-0.1740343783915043,0.0237563010305166,0.0102581828832626,0.0087435031309723
7.218599609375,0.0233837616642937,-0.0602331906339153,0.1364379304468631,0.0090928496792912,0.0005403119139373,0.0052619534544646
7.238650390625,0.1388960641887039,0.0014677892639301,0.18390812215209,-0.0163910761475563,0.0021211830899119,0.0179797150194644
7.25870263671875,0.0404580844534561,0.006001925562229,0.0276426246851682,-0.0159978903830051,0.0118945315480232,0.0206558890640735
7.278753662109375,-0.1108053669424727,-0.0322036489903926,-0.1086100123226642,0.0061373780481517,0.0052025206387043,0.0086939353495836
7.2988056640625,-0.2067753491289913,-0.0438181537373922,-0.1038484970092773,0.023976519703865,0.0077236047945916,-0.0180298201739788
7.3188564453125,-0.1980342261275276,0.0113022239274345,-0.0502303040683269,0.0378387868404388,0.0010871896520256,-0.0404237769544124
7.338908447265625,-0.1564139660269022,0.038813568649441,0.0614952099263668,0.0302052572369575,-0.0114076016470789,-0.0568126365542411
7.35895947265625,-0.1209801760088652,0.0316060301571153,-0.0087315879881381,0.0346255116164684,-0.0215365141630172,-0.0670906454324722
7.3790107421875,-0.0301015621446073,0.032082470296137,0.0334516032248735,0.0307726729661226,-0.0307660941034555,-0.0653872787952423
7.3990625,-0.0223010809941217,0.048908152086474,0.0867220056414604,0.0301963593810796,-0.0221940334886312,-0.063876636326313
7.419113525390625,0.0930321386363357,0.015961703638453,0.1153314295321703,0.0259084366261959,-0.0273944865912199,-0.0434611774981021
7.43916552734375,-0.0155141973329707,0.0426988491175696,0.0819727652877569,0.0221032071858644,-0.0329840071499347,-0.0473245903849601
7.459216552734375,-0.0107876802677288,0.0489574528546072,0.1638549296826124,0.0064655402675271,-0.0427951514720916,-0.0497704744338989
7.479268310546875,0.0491932161055505,0.0436737585643306,0.1634054323494434,-0.0104443896561861,-0.0561695098876953,-0.0426455177366733
7.4993193359375,0.0081624463306739,0.0591233296958729,-0.032654315367341,0.0167218949645757,-0.0458862446248531,-0.0434489957988262
7.519370361328125,0.0368537032859399,0.0043664881138131,-0.0051969841212034,0.0383051373064518,-0.0328648686408996,-0.0432323105633258
7.539422607421875,-0.051862691043131,-0.010904876906611,0.068007368299365,0.0373492278158664,-0.0365109592676162,-0.0569529831409454
7.559473388671875,-0.0257865484897047,0.0327124387627467,0.1266939505457878,0.0342140160501003,-0.0373439788818359,-0.0690457671880722
7.579525390625,0.0848933289095759,0.0952805020850151,0.1743184560298919,0.0184233970940113,-0.0432868748903274,-0.0586858354508876
7.59957666015625,0.1018925771685317,0.0801563635155558,0.0480430231571197,0.018009191378951,-0.0499297529458999,-0.0502908565104007
7.619628662109375,-0.0422049646534025,0.0991261811951175,-0.1477361540526151,0.0493679828941822,-0.0272454097867012,-0.0694772005081176
7.639679443359375,0.0017009221663698,0.1391145657775923,0.0514735821276903,0.0451536066830158,-0.0160100311040878,-0.0755372866988182
7.65973046875,-0.0307975450521334,0.0630939138272777,0.2218482689678668,0.006112951785326,-0.0283991862088441,-0.0804596021771431
7.679782470703125,-0.1037802175460383,0.0814143276873975,0.0418459220826625,0.0060135307721793,-0.0239207055419683,-0.0925842821598053
7.69983349609375,-0.0521232416754588,0.0742953990602865,-0.013002689436078,0.0204006228595972,-0.0025960535276681,-0.1094905287027359
7.719885498046875,-0.0099775329286232,0.073982935577631,0.0409510190695524,0.0206058323383331,0.0068838410079479,-0.1238917708396911
7.739936279296875,0.088481781855598,0.069309792667441,0.0445657024353742,0.028298407793045,0.0236073322594165,-0.1211777999997139
7.759987548828125,0.1527758287202567,0.0866196047129109,0.1153372747510671,0.0225127507001161,0.0142173394560813,-0.1053233444690704
7.78003955078125,0.0943709129594266,0.026636114523746,-0.000128594815731,0.0107996528968214,-0.02696543186903,-0.1315182447433471
7.80009033203125,0.0164433314092457,0.061493200632371,-0.0338052389681339,0.0139987617731094,-0.0319050066173076,-0.1408483237028122
7.820142578125,0.1183387581219896,-0.0131988695953041,0.1570014105260372,0.0006098910234868,-0.0462238751351833,-0.1392697542905807
7.840193603515625,0.0978955434216186,0.0589788797238841,0.0212175600737333,0.0073634274303913,-0.0309812258929014,-0.1237120702862739
7.86024560546875,0.0513828351043164,0.0766149280490353,0.2437251697331666,0.0041313366964459,-0.0250378809869289,-0.1077516824007034
7.880296630859375,0.1492826893748715,-0.0308517229247838,0.3117757926523685,-0.0272952783852815,-0.032219011336565,-0.0880347341299057
7.900347412109375,0.1376265922421589,0.0031185338793322,0.022129998743534,-0.0154861509799957,-0.0346566215157508,-0.0862830132246017
7.9203994140625,0.0607756634801626,-0.0073250091258436,0.0211550162315368,-0.0201299227774143,-0.0349014513194561,-0.0798498466610908
7.940451171875,0.0462366313222795,-0.0011249123767018,0.0128799398392438,-0.0169856566935777,-0.0276963897049427,-0.0793899148702621
7.960503173828125,0.0325435119366273,0.0493011334594339,0.0100923549473285,-0.0027743941172957,-0.0030708631966263,-0.049530055373907
7.98055419921875,-0.0299683642189949,0.0478060360634699,0.0562064558684825,-0.0014333891449496,-4.7564972192e-05,-0.0423446148633956
8.000605224609375,-0.1354257577296346,-0.046886948457174,0.1411246269583702,-0.0149189159274101,-0.0048807021230459,-0.0558731406927108
8.0206572265625,-0.1710166014729067,-0.0894422243855893,0.1251286009252071,-0.0267156790941953,0.0051955888047814,-0.0781180262565612
8.040708251953125,-0.0660866293698549,-0.0854334636682644,-0.0076700962364673,-0.0200212821364402,0.0025935429148375,-0.0857299715280532
8.060760009765625,0.001828859394975,0.0447926795916631,-0.2047568489134311,0.0255359522998332,0.0235078558325767,-0.0847934335470199
8.08081103515625,0.0704882253296673,-0.0767582455098628,0.1358937405675649,0.0084065273404121,0.0144132059067487,-0.0692599788308143
8.100862060546875,0.0640471228988841,-0.1175164454210549,0.2459440148264169,-0.0317395105957984,-0.0033026861492544,-0.058731809258461
8.1209140625,-0.0024187881121411,-0.0580187294548377,0.0529039071917533,-0.0334432534873485,-0.0084501039236783,-0.0609310828149318
8.140965087890624,-0.0109836412312462,-0.0362352425940334,-0.0690899028390645,-0.0112805822864174,-0.0031784414313733,-0.0585522130131721
8.161016845703125,0.0244060173841193,-0.0945652299551293,-0.1623088692843914,0.0245151109993457,0.0089648775756359,-0.0515467002987861
8.181068115234375,0.0327693565817549,-0.0784503267826512,0.0458551577240228,0.0258904360234737,-0.0008743624202907,-0.036933533847332
8.201120361328124,0.0368130059493705,-0.0242447258751839,0.2834650594472885,-0.0163167659193277,-0.0159501023590564,-0.0297319795936346
8.221171142578125,0.052636926818639,0.0469062376795336,0.2284656412810087,-0.0436513721942901,-0.0063227429054677,-0.0224970374256372
8.24122216796875,-0.0252573004512116,0.01799260667786,-0.0256552502602338,-0.0334405489265918,0.0027911271899938,-0.0239308830350637
8.261274169921874,-0.067082033615373,-0.0842594149202108,-0.1116828438967466,-0.0224917866289615,-0.007806334644556,-0.032088279724121
8.2813251953125,-0.0254018965536728,-0.0265336770625784,-0.1582861896395683,0.0132825607433915,-0.0019940086640417,-0.0273384656757116
8.301377197265625,0.0381816274214535,-0.0435507532391697,0.1555956353813409,-0.0069081862457096,-0.0045057730749249,-0.0217640325427055
8.321427978515626,0.0131916361369192,-0.0461871661573648,0.0828308434218168,-0.0150809995830059,-0.0123532898724079,-0.0248104911297559
8.341479248046875,0.0737452543642371,0.0049108241235837,-0.0801473034262657,0.0074965241365134,0.007094838656485,-0.017818097025156
8.36153125,0.0040392289208248,-0.0875687951965257,0.0457756627470254,-0.0012567016528919,-0.0063120583072304,-0.0115917259827256
8.38158203125,-0.005128923853673,-0.1342303739326074,0.2691723302006721,-0.0389132499694824,-0.0189878195524215,-0.0118676619604229
8.401634033203125,0.0964727440768852,-0.0657892173258587,0.1617845531493425,-0.0597016550600528,-0.0267939828336238,-0.0040485556237399
8.42168505859375,0.0703018359120935,-0.0291195288373157,-0.1817582506418228,-0.0138894831761717,-0.0222380608320236,0.0138838738203048
8.441736083984376,0.0438037050869315,-0.0477272352062165,-0.202433374401927,0.0216270256787538,-0.0272909291088581,0.0216456223279237
8.4617880859375,0.0049424248382449,-0.1116171947820112,0.0956599298566579,0.0086875595152378,-0.0483840592205524,0.0179307125508785
8.4818388671875,0.0827929956294596,-0.084225512650609,0.0629530075192451,0.0103576695546507,-0.0614592507481575,0.0216447561979293
8.50189111328125,0.0972545786369591,-0.0662459115847945,0.2026747819423675,-0.0085715893656015,-0.0620037317276001,0.0300771221518516
8.5219423828125,0.0789388044193387,-0.0497722581025213,0.117310620650649,-0.0088956262916326,-0.0463967323303222,0.0469776801764965
8.5419931640625,-0.0293433641884475,-0.1028637237556278,-0.0638099166095256,0.0205217897891998,-0.0279751364141702,0.039991308003664
8.562045166015626,-0.0300051890980452,-0.1401097508274018,0.0876806215405464,0.018134856596589,-0.033156368881464,0.0297487564384937
8.58209619140625,-0.0049145869832485,-0.0448899294210597,0.0852805746614933,0.0184599943459033,-0.045022789388895,0.0279916673898696
8.602148193359374,0.0303758490413427,-0.0221848342033103,-0.0701163232773542,0.0433547832071781,-0.0248995590955019,0.0297908019274473
8.62219921875,0.0387026556208729,-0.0901919833069667,0.0430044444680213,0.046345017850399,-0.0187666602432727,0.0319455005228519
8.64225,-0.0170320180173963,-0.1031765160318464,0.3113438309758901,0.0027626957744359,-0.0339060723781585,0.0326514989137649
8.662302001953124,-0.0276402135323733,-0.049114378715679,0.4088385750442743,-0.0546755716204643,-0.0457661487162113,0.0229681842029094
8.682353271484375,0.0061789078306406,0.0283390094514936,-0.1192161620110273,-0.020121743902564,-0.0157473273575305,0.035711009055376
8.702405029296875,0.0551964020431041,-0.0479244017461314,-0.3260521552860737,0.0343434251844882,0.0003695366904139,0.0439260303974151
8.7224560546875,-0.0625291560839861,-0.1101210379401221,-0.0877431653827428,0.0470530949532985,-0.0252905525267124,0.030928736552596
8.742507080078125,-0.0369159183345735,-0.0204664859781041,0.110149058458209,0.0377342104911804,-0.02249157987535,0.0297184996306896
8.76255908203125,0.0372332406554371,0.0575652865989133,0.1631418129771947,0.0174775030463933,-0.0089753875508904,0.0410568080842494
8.78260986328125,-0.0738064099669456,-0.023629260857962,0.2401841361254453,-0.0151417087763547,-0.0017151632346212,0.0285865887999534
8.802660888671875,-0.0343632381770759,-0.0464687595777213,0.0220335526317358,-0.1287653148174286,-0.1699947863817215,0.0508591718971729
8.822713134765625,-0.0983008728194981,0.0983374419702216,0.0402314726233482,-0.0162347294390201,-0.0360427238047122,0.012672372162342
8.84276416015625,-0.1208729893073439,-0.0442618241179734,-0.1944786160051822,0.0392858125269413,0.0067109069786965,2.77138315141e-05
8.862816162109375,-0.0395913480889052,-0.0397102982934564,0.2225233917504548,0.0145110758021473,-0.0028803087770938,-0.0027510966174304
8.8828671875,0.0018925357483327,0.0150347797855734,0.1874976710766553,-0.0043293870985507,-0.0022629131563007,-0.0027248624246567
8.902918212890626,-0.0620062281884253,0.0016975976981222,0.0379594360381364,0.0046120323240756,0.0135659212246537,-0.0104205608367919
8.92297021484375,-0.0387158804286271,-0.0495023185873404,0.0537818590700626,0.0100337266921997,0.0141273085027933,-0.0123967975378036
8.943021240234375,0.0303493994258344,-0.0083093805206939,0.1274327862143516,9.31983813643e-05,0.0032566455192863,-0.0048268898390233
8.963072998046876,0.0509811224356293,0.0286806990286335,-0.0020043255597352,0.0076148128136992,0.0019091637805104,0.0004592798650264
8.9831240234375,0.043902635416761,0.0074476125922054,-0.0224058930754661,0.0255038850009441,0.0100900251418352,0.0126787666231393
9.003175048828124,-0.0478659130245447,0.017957973755896,0.0225187058001756,0.0391395762562751,0.0146590704098343,0.0044631781056523
9.02322705078125,-0.0964298913158476,-0.0334802813300862,0.2418079379349947,0.010347481817007,0.0222650356590747,-0.0051219067536294
9.043278076171877,0.0350861456241458,-0.0016574483508244,0.1798106237053871,-0.0103698745369911,0.012021068483591,0.0113889928907155
9.063330322265625,-0.050240387070924,0.0628015798171982,-0.0776397045195102,0.0190502032637596,0.0265959929674863,0.011349743232131
9.083381103515626,-0.1058157054290175,0.0364157867927104,-0.077515201357007,0.0507223270833492,0.0483657456934452,-0.0027470691129565
9.103431884765625,-0.1365816497664898,0.0352099546669051,0.0326519772797822,0.0553237460553646,0.0434473827481269,-0.0160431023687124
9.123484130859374,0.085138389711827,0.0284478035882115,0.4273632427722215,-0.0071014612913131,0.0271374527364969,0.0048147165216505
9.14353515625,0.0217662069324404,-0.0062819298136979,0.3414887938708066,-0.0421090871095657,0.0220702718943357,0.015208963304758
9.163586181640625,-0.2709747034475207,-0.0420544867994263,-0.2037976484924554,-0.0266117043793201,0.0442936569452285,-0.0252442900091409
9.18363818359375,-0.2575673787333071,0.0442316481754183,-0.5209416901797056,0.0453597865998744,0.0482876263558864,-0.0572560094296932
9.203689208984375,-0.033651071319729,0.0478725619610399,-0.2482201430648565,0.053700778633356,-0.0030884291045367,-0.0399213656783103
9.2237412109375,0.0490653519421815,0.1076997290773317,0.0677390727519988,0.0491171069443225,-0.0152047704905271,-0.0285204015672206
