timestamp,acc_x,acc_y,acc_z,gyro_x,gyro_y,gyro_z
0.1112958984375,0.0505362282123416,-0.0202047297693789,0.0973275708079338,-0.0110896937549114,-0.0263742618262767,0.0071232072077691
0.131347900390625,0.0751458966760896,-0.0870172987936064,-0.0137684131115674,-0.0039979619905352,-0.0357354991137981,0.0038706585764884
0.15139990234375,0.0964560669367201,-0.002472819854319,-0.038659693261981,0.0047282837331295,-0.0250497963279485,0.0077432496473193
0.171450927734375,0.1600740229044109,0.0319411255966871,-0.0611766454964876,0.0264308881014585,-0.0228867754340171,0.0170184299349784
0.1915029296875,0.1645661649581976,0.0390440164044499,-0.0039297406643629,0.0180299468338489,0.0086959181353449,0.0379119925200939
0.21155517578125,0.1334443381214514,0.0106198494201526,0.0124473936408758,0.0238406583666801,0.0071525415405631,0.0540610924363136
0.23160595703125,0.0639634997360408,0.0378288684610277,0.1544862128347158,-0.0041209617629647,-0.0260364580899477,0.0645761266350746
0.251657958984375,0.0522389404769986,0.0388420640915632,0.2755845353305339,-0.0268741436302661,-0.0515342429280281,0.0646715611219406
0.2717099609375,-0.0624505013572052,0.0427436746399849,-0.0412502942770719,0.0135019086301326,-0.0238398425281047,0.0418295636773109
0.291761962890625,-0.0562941524182446,-0.0255427663290873,-0.0926473040372133,0.0157809481024742,0.0402186550199985,0.0338955745100975
0.311812744140625,-0.0825329929864034,-0.1198590630244463,0.0326554844111204,0.0099847512319684,0.0225847959518432,0.0151484999805688
0.33186474609375,-0.081161138377618,-0.0974663216914981,0.2272223632216453,-0.0187216084450483,-0.0140030421316623,0.0072350120171904
0.351916748046875,-0.0160331249068491,-0.072418864598684,0.0237292506337165,0.0058168647810816,-0.0076441313140094,0.0018151956610381
0.3719677734375,0.0382961023802869,-0.0520940155809745,-0.1174848081737756,0.031310424208641,0.0365449711680412,0.0018098154105246
0.39202001953125,0.1394697724234312,-0.0087521923847496,0.0839946265041828,0.0174364354461431,0.0244204774498939,0.0141631178557872
0.412072021484375,0.176598931649886,-0.0162148198829963,0.1453214941263198,0.0073812450282275,-0.0004402073100209,0.0302687138319015
0.432123046875,0.1873935165824368,-0.0152261376392096,0.0849514888375997,0.0071759829297661,-0.0116522628813982,0.0525277704000473
0.452175048828125,0.1724664349550381,0.0096645579893141,0.1546335123509168,-0.0125304525718092,-0.0194663256406784,0.0623535253107547
0.472226806640625,-0.0112068189952522,-0.0565193577425554,0.0738344670176506,-0.003866656217724,-0.0021342067047953,0.0360904932022094
0.492279052734375,-0.130138611106947,-0.072085139132291,-0.0949807154208421,0.02365018799901,0.0108500346541404,0.0197064578533172
0.512330322265625,-0.0897460296377539,-0.086067194994539,-0.1025923594683408,0.0513090342283248,0.0071408236399292,0.0079926690086722
0.53238232421875,-0.068440225024987,-0.0944882922613993,-0.072164487978816,0.0739796757698059,0.0170233994722366,2.63503752648e-05
0.552433837890625,0.0368182666463777,-0.0666730144230648,0.1195265431344509,0.0476947240531444,0.0212682839483022,0.0056543545797467
0.572485107421875,0.1279248988465406,0.0008720701267942,0.3106137631356716,0.0079574733972549,-0.0077419886365532,0.0235455129295587
0.592537109375,0.1165496096828952,0.0019799583034589,0.167130590352416,0.0012191163841634,-0.0109015610069036,0.0302981473505496
0.612589111328125,0.0938190512303262,0.0114862935237586,0.0444084660470485,0.0130284111946821,-0.0006542862392961,0.0314645022153854
0.63264111328125,0.0476950499696657,-0.0421788803640753,-0.1464595582455396,0.0408378727734088,0.0271897427737712,0.0359800718724727
0.65269189453125,0.0323895817502401,-0.0422429585762321,-0.0138671973109245,0.0462309718132019,0.0068642720580101,0.0443911626935005
0.672744140625,-0.0155393317742273,-0.0071460723623633,0.1551595820516347,0.0253307241946458,-0.0121938381344079,0.0406898260116577
0.692796142578125,-0.0407626020916737,0.0004925692899152,0.1031862337082624,0.0212159939110279,0.0008581597357988,0.0346505492925643
0.71284716796875,0.0366317676309496,0.0518288983713835,0.0508218402206897,0.0296851396560668,0.0100042521953582,0.0426358506083488
0.732899169921875,0.0377848101235926,0.0256980664886534,0.0556383005917072,0.027880048379302,0.0164096858352422,0.0453554689884185
0.752950927734375,-0.011613280904293,0.0158740070886909,0.2623234872192144,-0.0101842302829027,-0.0095799788832664,0.0393324047327041
0.7730029296875,0.0004410582983866,0.0186124556092545,0.1999661075055599,-0.0267810262739658,-0.0207710079848766,0.0392748340964317
0.793053955078125,-0.0136479285370558,0.0378096157712861,0.0212175600737333,-0.0162539239972829,0.0263101831078529,0.0364212468266487
0.81310595703125,-0.0216734871476888,-0.0215266625555232,0.0212619837373495,-0.0111600421369075,0.016128646209836,0.0339633002877235
0.833158203125,-0.0250795692641288,-0.034415589418821,0.0674871438175439,-0.0100233387202024,-0.0046670627780258,0.0338856242597103
0.853208984375,0.0747567512280307,0.0165542444378137,0.0117746089458465,-0.0021276650950312,-0.0023952359333634,0.0465555265545845
0.873260986328125,0.1145330822287127,0.0692460432488471,0.0731681120634079,-0.0133663108572363,0.012494727037847,0.0569578222930431
0.89331298828125,0.0515145351925864,-0.0320657018244266,0.1143716445893049,-0.0205032769590616,-0.0137210898101329,0.0493662543594837
0.913364990234375,0.0297365099581889,-0.0456461180832237,-0.0514899487406015,0.0197094827890396,-0.0174651127308607,0.0501635074615478
0.933416015625,0.0721866450116969,0.0053266383828595,-0.0478740963310003,0.03354087844491,-0.0070670675486326,0.0552980788052082
0.953468017578125,0.0361085109418258,-0.0308801818342879,0.1027490113347768,0.0170251224189996,-0.0081867352128028,0.0451997704803943
0.97352001953125,0.0011743592753075,-0.0777448819270357,0.0684492668479681,0.0266949161887168,-0.0143884373828768,0.0362638942897319
0.993571044921875,0.0458910327550023,0.0149426445227116,0.0481838929325342,0.0315003246068954,0.0022585620172321,0.0479646399617195
1.013623046875,0.1711229479242116,0.015820304140076,0.1684048480719328,0.0137208066880702,-0.0147539004683494,0.0665902197360992
1.033675048828125,0.0540254768338985,-0.024995434644632,0.2189244904756546,-0.023314656689763,-0.0181334130465984,0.0573912560939788
1.05372705078125,0.0504882974173873,-0.0441780913572758,0.0445557655632495,-0.0075191287323832,-0.0063583622686564,0.0604413785040378
1.07377783203125,0.1231715303069911,0.0319209961241111,-0.1441243932962417,0.0282156076282262,-3.7882477045e-05,0.0899116396903991
1.093829833984375,0.1652530329775065,0.001704100504145,-0.0169710085451602,0.0247014183551073,0.0053429221734404,0.0963529720902443
1.1138818359375,0.0319988836659118,-0.0495729361381381,0.0564887799412012,0.0298161525279283,-0.005092064384371,0.0748075172305107
1.133932861328125,0.0761815598667599,-0.0516761554950848,0.0943295580357313,0.0270268786698579,-0.017225157469511,0.0816807001829147
1.153985107421875,0.1303996001306921,-0.0446148753393441,0.1448006851226091,0.0310963615775108,-0.0225938279181718,0.1001323983073234
1.174037109375,0.0063490950320847,-0.1316143827479332,0.1064046112328767,0.0443278402090072,-0.0240367259830236,0.0929306969046592
1.1940888671875,-0.1185502819808199,-0.2503992406696081,0.031900866651535,0.0615467429161071,-0.0036771679297089,0.0573358982801437
1.214139892578125,-0.2019094053267501,-0.279377790133655,0.1025415060639381,0.0509862303733825,-0.0071639660745859,0.0216028243303298
1.23419189453125,-0.0981865257248282,-0.307913783461973,0.1597019016563892,0.0247344300150871,-0.0131569560617208,-0.0073071960359811
1.254243896484375,0.0329545769555494,-0.152118168529123,0.1700309879690408,0.0123694520443677,-0.0159835554659366,-0.0095763048157095
1.274296142578125,0.1464555761901661,0.006824000801146,-0.0144862059921026,0.0284111090004444,0.0028616529889404,0.0069626183249056
1.294346923828125,0.2699866239919327,0.1358596921674907,0.0666805036097765,0.0200419537723064,0.0003163176588714,0.0311347004026174
1.31439892578125,0.2463834291569888,0.3271436037845909,0.1915560065567493,-0.0058420691639184,0.0085853952914476,0.0787247493863105
1.334450927734375,0.274564617698267,0.3968905822928995,0.2700017667621374,-0.0401389114558696,-0.0521957762539386,0.1297727823257446
1.354502197265625,0.1693952108161524,0.5043929256346077,0.2710124051094055,-0.0601726844906806,-0.0589742101728916,0.1741114556789398
1.37455419921875,-0.0339849611829035,0.4384010618761181,0.1063508352190256,-0.0496355034410953,-0.0314981080591678,0.1835489869117736
1.394605712890625,-0.2124615415392443,0.2577523799113929,0.1442629249840974,-0.0732089355587959,-0.0202148649841547,0.1789752393960952
1.41465771484375,-0.3480943296156823,-0.0097117215992882,0.2325982110410928,-0.1161783635616302,-0.0341591760516166,0.1366522014141082
1.434708984375,-0.4447544494908302,-0.1782108603585511,0.1442640940278768,-0.1304315328598022,-0.0342058576643466,0.0781801491975784
1.454761474609375,-0.413162648788467,-0.2760934712333605,-0.0458837992966175,-0.1318186819553375,-0.0108046224340796,0.0299909897148609
1.4748134765625,-0.2695696954878047,-0.279894507484138,-0.160713124525547,-0.1036972850561142,0.0103534692898392,-0.0072664036415517
1.494865478515625,-0.1550188584066927,-0.2554094700470566,-0.2206716264039278,-0.0682999715209007,0.0216110702604055,-0.0361386947333812
1.51491650390625,-0.0031865758805535,-0.28462314344123,-0.0508504817932844,-0.063410185277462,0.0022924244403839,-0.0524790957570076
1.534968505859375,0.1456225959647446,-0.2049899635495617,0.0306330386728048,-0.0546803139150142,-0.0009502423927187,-0.0399075672030448
1.5550205078125,0.1811220716301351,-0.1708336826540529,-0.0804307965427637,-0.0215657856315374,0.0140475388616323,-0.0251099430024623
1.57507177734375,0.0796487336538266,-0.2315134480116888,0.0010264204382896,-0.0118283741176128,0.0169000141322612,-0.0193164534866809
1.595123779296875,0.0548486754508223,-0.2200122491797432,0.1616091965824365,-0.0388719663023948,-0.0192332603037357,-0.0129434280097484
1.61517578125,0.0692961294682696,-0.1581484251366928,0.0730938777834177,-0.029286740347743,-0.0464057996869087,0.0042972979135811
1.635227294921875,0.0492463984643574,-0.1001543186664581,-0.212851308041811,0.0322886854410171,-0.0118044111877679,0.0159775000065565
1.655278564453125,0.0360661696374416,-0.0908090922920033,-0.2631809808313846,0.0797454267740249,0.015784416347742,0.0354193411767482
1.675330810546875,-0.018767554839421,-0.1038368796367198,0.1675666436821222,0.027585782110691,-0.0572282373905181,0.0113450028002262
1.6953828125,-0.0450349639149382,-0.2053365119649097,0.069189856082201,0.0289304107427597,-0.0537698566913604,0.0098610892891883
1.715434814453125,-0.2178026468388736,-0.0343299934946,-0.2958925793439149,0.060844600200653,-0.0728636160492897,-0.0245517157018184
1.735485595703125,-0.1739725469353608,0.1041893828688189,0.1150935291230678,0.0313938371837139,-0.0912514552474021,-0.0788264349102974
1.75553759765625,-0.1109800293896347,-0.0815961870603263,0.0540659367084503,0.003764099208638,-0.1064931005239486,-0.0989056751132011
1.775589599609375,-0.2149428186946548,-0.2115269641028717,0.2172498352617025,-0.021252317354083,-0.0864443704485893,-0.114587128162384
1.7956416015625,-0.6269522605936974,-0.2375822830639779,0.0581342090606689,0.009307550266385,0.0864059329032898,-0.228957861661911
1.815692626953125,-0.7486519099835306,-0.1623162488732487,0.6567559357702731,-0.1305446922779083,0.2074389159679412,-0.3002685010433197
1.835744873046875,-0.5370142520477995,-0.3774418950552121,0.8716448871195316,-0.2376541197299957,0.2364450097084045,-0.2642823457717895
1.855796630859375,-0.6133234020832926,-0.2782127284096554,0.148642747503519,-0.1905523836612701,0.1324364989995956,-0.2466800808906555
1.87584765625,-0.7927056443087757,0.0560608733853325,-0.9053536799758672,-0.0200534425675869,-0.2133839726448059,-0.4405838251113891
1.895899658203125,-0.274181280936487,0.5685706891758368,-1.4172732747882604,0.3730188608169555,-0.833025336265564,-0.6334845423698425
1.91595166015625,-0.7486327668916434,-0.1020814873367547,-1.482090322613716,0.8245828151702881,-1.283345341682434,-1.0269023180007937
1.936003662109375,0.0746352620065212,0.1637495696119964,-0.275625451862812,0.8335063457489014,-1.7347030639648438,-1.0654096603393557
1.956054443359375,1.0597658777263017,-0.1359460552766919,0.7804542116314173,0.6694099307060242,-1.2348655462265017,-0.7735781669616699
1.9761064453125,1.7457839291423558,-0.09750234285295,1.688486755427718,0.3238186240196228,-0.1163128688931465,-0.3739887475967407
1.99615869140625,1.7752951241783796,-0.3371511299926787,1.784206306517124,-0.0740486308932304,0.6581615209579468,-0.0684734210371971
2.016210693359375,1.974252054641396,-0.1953884973917156,1.83911921544373,-0.5078612565994263,0.6155948042869568,0.2342307567596435
2.03626171875,0.8737294383086264,0.4731502306308597,0.6789549080967903,-0.5151130557060242,0.2597733438014984,0.4340591728687286
2.056313720703125,0.7033368504855781,0.3178369923874735,-0.7092085920631885,-0.4463561773300171,-0.0406816005706787,0.75390625
2.076365478515625,0.7885506435211748,0.3653198974438011,-0.965731868571043,-0.294900119304657,0.0319777689874172,0.7628588080406189
2.09641650390625,0.6676289197012781,0.345860579214245,-1.882205492976308,0.0028937661554664,0.1713955402374267,0.6266247630119324
2.116468505859375,-0.0351338572233915,0.316868147355318,-2.25007317520678,0.2475223541259765,0.2409451007843017,0.6040292382240295
2.136520751953125,-0.3612430399263277,-0.1509014862157404,-0.6254214708298445,0.2400376945734024,0.0676559880375862,0.4958216547966003
2.15657275390625,-0.6154538382407277,-0.6381875019658356,0.3338029155433177,0.2253426611423492,-0.1218332573771476,0.4062215387821197
2.17662353515625,-0.741880735348165,-0.4518973800480365,0.474312040951848,0.0199557319283485,-0.198332205414772,0.5084885954856873
2.196675537109375,-0.4297155049867928,-0.1638397321134805,1.2527753710269929,0.0601032488048076,0.1236275658011436,0.320518285036087
2.2167275390625,-0.3966172087116166,-0.0712063835363835,-0.2267085684806108,0.1128380820155143,0.1866058111190796,0.1842900365591049
2.236778564453125,-0.465199636952579,-0.1247580140471458,0.9233201292991636,-0.0876253172755241,0.4778503477573395,0.1566723585128784
2.25683056640625,-0.4943477708298712,-0.2330038692325353,0.4495703984051942,-0.0582206286489963,0.3875044286251068,0.037796713411808
2.27688232421875,-0.3490363597061485,0.1548661520630121,-0.3184796742051839,0.065788097679615,0.4062522947788238,-0.0150810405611991
2.2969345703125,0.3165000446952879,0.5658752030141652,0.0814338361054658,0.0238432027399539,0.3717161118984222,0.145711287856102
2.316985595703125,0.4176929126292467,0.1901028851389885,-0.0273860195755958,0.0873173475265502,0.1989303529262542,0.1915987879037857
2.33703759765625,0.1931070719236507,-0.167246691012755,-0.1104787288039922,0.1311435848474502,0.142910361289978,0.1709086000919342
2.357089599609375,-0.338513942778483,-0.1614471378885209,0.1864034460991621,0.0738869309425354,0.0944971889257431,0.0948040187358856
2.377140380859375,0.6029555546628311,0.0240396317571401,0.1800999620407819,-0.0070217028260231,0.1142504587769508,0.1248387321829795
2.3971923828125,0.487791590652056,0.4886833883926272,-0.2720095994532108,0.052382368594408,0.1763544976711273,0.2461158335208892
2.417244384765625,0.1241360096912831,0.0720291711613535,0.0828548088192939,0.1215808317065239,0.1195893287658691,0.2572252154350281
2.437296630859375,0.0655599431812064,-0.0414895098604261,-0.0376812036186456,0.1486819088459015,0.1241950392723083,0.2620016932487488
2.457347900390625,-0.2194340109003707,0.028657646946609,-0.198315417689085,0.1794156581163406,-0.0335865579545497,0.1801650077104568
2.47739990234375,-0.1829458895238116,-0.1823309359632432,0.2142535760551691,0.0732766464352607,-0.0849951207637786,0.1661233305931091
2.49745166015625,-0.4596375458460301,-0.3513868683550507,0.5630728589445352,-0.0090382471680641,-0.1307365000247955,0.0815185457468032
2.5175029296875,-0.5030574027145281,-0.3339692850861698,0.5254442622959613,-0.1055433973670005,-0.1026474609971046,0.0046789748594164
2.5375546875,-0.4207481354814023,0.0828800893910229,0.3449035707503557,-0.1724022924900055,0.0293922945857048,-0.0280756168067455
2.557606689453125,0.2206649409348145,0.203872028902918,0.4235685266643762,-0.2573177814483642,0.1163609698414802,0.0340885631740093
2.57765869140625,0.1971276326766237,0.0898657104946672,0.177030053076148,-0.2740690112113952,0.1087387055158615,0.0415735393762588
2.597709716796875,-0.0426940587780205,-0.0456248560994863,-0.0273375042587518,-0.2418228238821029,0.080260045826435,0.0282216779887676
2.617761962890625,-0.2382928790187463,-0.0403765071172267,-0.3746569039791822,-0.0711851269006729,-0.0355230569839477,-0.0439283475279808
2.637813720703125,-0.0583188768786145,-0.1144546466976404,0.0079062430799007,-0.0786367282271385,0.0014463760890066,-0.0348311923444271
2.657864990234375,0.1346579516949132,-0.2522577280178666,0.0088946695953607,-0.0982547476887703,0.0119539536535739,-0.0100021380931139
2.6779169921875,0.2227178548766299,-0.0312404299814254,-0.0666647215187549,-0.0832833424210548,0.035562764853239,0.0318151861429214
2.697968994140625,0.1534307306987233,0.0303264569416642,0.0462140541642904,-0.1216927468776702,0.0516056083142757,0.0334483943879604
2.718019775390625,0.1524772841650992,-0.0975059230495244,0.1611310576766729,-0.1603201180696487,0.0382990837097168,0.0320159457623958
2.73807177734375,-0.0901306450411677,-0.0360040276540443,0.3354004138678312,-0.2639218270778656,-0.0112821646034717,0.0474127493798732
2.7581240234375,-0.0724389575386419,0.0696118078213185,0.4194494009077549,-0.2005338072776794,-0.0276882983744144,0.0258964616805315
2.778176025390625,0.0184288609369657,0.1125183448728174,-0.3729243810981512,-0.0821484252810478,-0.0088615389540791,0.0193348359316587
2.79822705078125,-0.1075143077741377,0.0711190705791115,-0.4698065462261438,-0.0043553453870117,0.0630928874015808,-0.0003547482192516
2.81827880859375,-0.1199388685286976,0.0409241310626268,-0.2089110459834337,0.0188894569873809,0.0670723319053649,-0.001291737658903
2.838330810546875,0.0435093983154743,-0.0381216408625245,-0.0688420655578374,0.0360074043273925,-0.0055041247978806,-0.0062261950224637
2.8583818359375,0.0124078470817767,-0.0251777689415961,-0.0047626843571662,0.0411760136485099,-0.0351797714829444,-0.0212004762142896
2.878433837890625,0.0329905250517651,0.0094752094296738,0.1772697070509195,-0.0078854579478502,0.0101083852350711,-0.0051512671634554
2.89848583984375,0.1651060805211774,0.0607791706115007,0.3241086200028658,-0.0481945723295211,0.0152809713035821,0.031826414167881
2.9185380859375,0.0843602814787998,0.0851998741080984,0.1630804381787776,-0.0283649414777755,-0.0126784909516572,0.0348493680357933
2.9385888671875,0.1420714976207353,0.1330640700995922,0.0606675269305706,-0.026930496096611,0.0280274618417024,0.0494052618741989
2.958640869140625,0.1639000291996635,0.0402320206126198,0.1189560497701168,-0.0468167699873447,0.0361243598163127,0.0664427429437637
2.97869287109375,0.1122210972256027,0.0273168998621404,0.0156938282161951,-0.0252948105335235,0.0418235473334789,0.0896768569946289
2.998743896484375,0.0101534557511098,-0.0378127941090613,-0.1918412532389163,0.0149556351825594,-0.0144620109349489,0.0497255250811576
3.018795654296875,-0.1212539879815653,-0.0701917266011238,-0.0341308176606893,0.0124711208045482,0.0035775606520473,0.02900798805058
3.03884765625,-0.0868255756137892,-0.0031279592948034,0.095092943623662,-0.0064620925113558,-0.0057670976966619,0.0241678394377231
3.058898681640625,0.0555663678666576,0.0605090484332293,0.1137444526016712,-0.0026604826562106,0.0088873282074928,0.040735624730587
3.078950927734375,0.0224798350945115,0.0260698954757302,-0.1097919155836105,0.0301023926585912,0.0290334243327379,0.0293938163667917
3.0990029296875,0.0206408561643213,0.0503061823161318,-0.0514244822889566,0.0498195588588714,0.0418190658092498,0.0319261625409126
3.1190537109375,0.0677096091954968,0.061622489567846,0.0297568403601646,0.0365389883518219,0.0168377440422773,0.0400448590517044
3.139105712890625,0.0976397602959536,0.0592007788462564,0.1275467679828405,0.013459725305438,0.044303223490715,0.0678273290395736
3.15915771484375,0.1226708690421655,0.0491368828084319,-0.1520341435074806,0.0664742067456245,0.0098078325390815,0.0632948949933052
3.179209716796875,0.0829167864059098,0.0113502095213159,-0.2712678411751985,0.1144313514232635,0.02085249312222,0.0594751238822937
3.1992607421875,-0.0368844820166937,0.01903232498914,-0.1316810913085937,0.1267021745443344,0.0206268057227134,0.0605984479188919
3.219312744140625,0.0212740943002514,0.001459441560693,0.1034141972452402,0.1074530258774757,-0.0001210370101034,0.0677274242043495
3.23936474609375,0.1224903065771795,-0.023897154546529,0.0385112247020006,0.1248044073581695,-0.0500934347510337,0.0712052881717681
3.259416015625,0.0720527164337225,0.058138739105314,0.1330909581065177,0.1194467023015022,-0.032518096268177,0.0625484585762023
3.2794677734375,-0.0050405149178579,0.0745638772707432,0.2185544881194829,0.0889246985316276,-0.0112387910485267,0.0513908714056015
3.299519775390625,-0.0294452719266526,0.0102724607545882,0.3071937255591154,0.0402642525732517,-0.0115709230303764,0.0527820028364658
3.319571044921875,0.024706735630054,-0.0657374506060034,0.3463338958144187,0.0026091802865266,-0.0492188893258571,0.0520827919244766
3.339622802734375,-0.0508837995409965,-0.1225137422516942,0.1111667110681533,0.0086595229804515,-0.0607278533279895,0.021896494552493
3.3596748046875,-0.1306385965183377,0.0083944649882614,-0.2971218288779259,0.0722146108746528,-0.0153268873691558,0.005567377898842
3.379725830078125,0.0307736892525106,0.062641749612987,-0.1315109954386949,0.0909139811992645,-0.0076921069994568,0.0169014409184455
3.399778076171875,0.0725628761792555,0.025518764398992,0.2623638192296028,0.047288354486227,-0.0206255931407213,0.0271466448903083
3.419830078125,0.043268757960014,0.0357390565749257,0.314656316524744,0.0080984085798263,-0.0229058321565389,0.0311791747808456
3.439880859375,0.046790977269411,-0.0054688598651438,0.2183434757173061,-0.0123851560056209,-0.0135866571217775,0.02949277497828
3.459932861328125,-0.0182432204380631,-0.0224899180971086,0.0993938556879758,-0.0164802782237529,-0.0093710394576191,0.0261981338262558
3.47998486328125,-0.0891173398127779,-0.0223187262486666,-0.0894499693006277,0.0025121651124209,-0.0083608170971274,0.0204273127019405
3.500035888671875,-0.0100867631734698,0.0031148440849035,-0.148799399369955,0.0309980567544698,-0.0098397079855203,0.0222756117582321
3.520087890625,0.0181534597953781,0.0029725860700011,-0.0765063165754079,0.0451733022928237,-0.0217189323157072,0.0249076560139656
3.540139892578125,0.0897182648479938,0.0456115582264959,-0.011827800437808,0.0482884533703327,-0.014790304005146,0.0438446030020713
3.560190673828125,0.0589714636024087,0.0294053235087543,0.1512918007075786,0.0264180973172187,-0.0127806393429636,0.0421586781740188
3.580242919921875,0.0463094408301636,0.0124229898519814,0.1462245804458856,0.0177652463316917,-0.0240666959434747,0.0515174902975559
3.600294921875,0.0033648367905989,-0.0476784276284277,0.1103846207797527,0.0108903897926211,-0.0381954498589038,0.0479088053107261
3.620345947265625,-0.0217776051092892,-0.0269711551643908,0.0505213959693908,0.009540606290102,-0.0334647223353385,0.0281820725649595
3.640397705078125,-0.1116947900628671,0.0030270927362143,-0.0462163922518491,0.0210118647664785,-0.0171576216816902,0.0129590164870023
3.66044970703125,-0.0259950766738504,0.0023668021965771,0.0398860201865434,0.0245758704841136,-0.0267724636942148,0.0181231424212455
3.680501708984375,-0.0204817931450903,0.0149534581776708,0.1731435670316219,-0.0036421855911612,-0.0424140058457851,0.015843741595745
3.700552734375,-0.0088141836710972,0.0278854204650968,0.2187958956599235,-0.0221494436264038,-0.0492565184831619,0.0117471236735582
3.720604736328125,-0.0203500473910477,-0.0491324988942593,0.0773866065412759,-0.0203996375203132,-0.0447425357997417,-0.0075271087698638
3.740655517578125,-0.0448448481703177,-0.0601851502411067,-0.0213379715830087,-0.013955327682197,-0.0431630387902259,-0.0194205082952976
3.760707763671875,0.0214481539592146,-0.0574935000043362,0.082229954919219,-0.0236408244818449,-0.0472673214972019,-0.0045113200321793
3.780759765625,0.029367786243651,-0.0096663846202194,0.1994108117103576,-0.0495881736278533,-0.0523519776761531,-0.002908996772021
3.800811767578125,0.0384676230222918,-0.0499358511663973,0.0241208802998065,-0.0435530506074428,-0.0547002740204334,-0.0075926380231976
3.82086279296875,0.0432869877364486,-0.0348166810330003,-0.0986813235044479,-0.0164529662579298,-0.0314908325672149,-0.013208370655775
3.840914794921875,0.0528121920539997,0.0203573630478233,-0.1466974586546421,0.0152433784678578,-0.0191531665623188,-0.0009005407337099
3.8609658203125,0.1479441433806438,-0.0009326046749949,-0.0145797294944524,0.016428830102086,-0.0254560336470603,0.0166887734085321
3.881017822265625,0.1177414680822752,-0.0692757807999849,0.0662099634885788,0.0070518823340535,-0.0445458739995956,0.0246445946395397
3.901070068359375,0.092456950830575,-0.0649861938472837,0.0157628017991781,0.0195536669343709,-0.0548294745385646,0.0268958956003189
3.92112109375,0.0797969008197076,-0.0315847133744508,-0.0641220512986183,0.0351777672767639,-0.0409952327609062,0.0301259849220514
3.941173095703125,0.0854786727831699,-0.0117332540221512,0.0438438179016113,0.0348900109529495,-0.0388648882508277,0.0385171324014663
3.961224853515625,0.024358780708909,-0.0452879522953182,0.1543558644533157,0.0250455066561698,-0.0281913913786411,0.0302723124623298
3.98127685546875,0.0022492036988958,-0.0701785017933696,0.065101709985733,0.0234641451388597,-0.0385031625628471,0.0263255815953016
4.001327880859375,0.0378495093902572,-0.0504164012249559,0.0968085153698921,0.0204434711486101,-0.0431717857718467,0.0301967803388834
4.0213798828125,0.0690530414273962,-0.0543983835332095,0.1074742862910032,0.003652264131233,-0.0493186376988887,0.0315454788506031
4.0414306640625,0.0362118982510641,-0.0071238605305552,0.1234755730211734,-0.0034480553586035,-0.0421898439526557,0.0309886448085308
4.061482666015625,0.0245228852294385,-0.0153201725982129,0.0375941098570823,0.0038851317949593,-0.0183466803282499,0.0202655233442783
4.081534912109375,0.0093714567942544,-0.0171215229317545,-0.0218085117042064,0.0192316528409719,-0.0227136872708797,0.0129970852285623
4.1015859375,0.0117467893571592,-0.0309402779910713,0.0517044682741165,0.015451549552381,-0.0201270375400781,0.0128961876034736
4.121637939453125,0.1251976658397354,-0.0074635408136993,0.1338151807278394,-0.0096721146255731,-0.0391891859471797,0.035218771547079
4.14168994140625,0.1368492329278029,-0.0355946066029369,0.1563385627031326,-0.0276370365172624,-0.0518358126282691,0.0458982735872268
4.16174072265625,0.041954551822599,0.0316116013813763,-0.1056803886115551,0.0120305027812719,-0.0226196087896823,0.0455500073730945
4.181792724609375,0.0286536100923083,-0.0134926649101078,-0.0568839167386293,0.0238031558692455,-0.0078516881912946,0.0325085371732711
4.2018447265625,-0.0409471283457241,-0.0393973598867654,0.1129348897844552,0.0078626843169331,-0.0074982903897762,0.0200922489166259
4.221895751953125,0.0095261358993127,-0.0434938354201614,0.2643441793918609,-0.0317059084773063,-0.0116517525166273,0.0208295080810785
4.241947998046875,0.0273410113900899,-0.0763893391322344,0.2479068393319845,-0.0550534576177597,-0.0163089819252491,0.0272543579339981
4.261999755859375,0.0765057137872092,-0.075807301460579,0.1775473549485206,-0.0679701119661331,-0.0217289272695779,0.0246202200651168
4.28205078125,0.0299153919227421,0.0292646729290485,-0.0500391654103994,-0.0445702299475669,-0.0089664496481418,0.029899900779128
4.302102783203125,0.0418560416178777,-0.0060717211291193,-0.1883276921600103,-0.0060512530617415,-0.0025114435702562,0.0224690847098827
4.32215478515625,-0.0325325521511957,-0.0672070847671479,-0.0084194532990455,-0.012066931463778,-0.0052562821656465,0.0190943889319896
4.3422060546875,-0.0280735817146487,-0.0732706956550478,0.224238963496685,-0.0396670177578926,-0.01481718942523,0.0099839549511671
4.3622578125,-0.0167820983769372,-0.0219876676633954,0.19207681556046,-0.0497065037488937,-0.0135875949636101,0.0094292405992746
4.382308837890625,0.026862762886472,-0.0011556728411465,0.0234615396082401,-0.0441909544169902,-0.0110115241259336,0.0090919872745871
4.40236083984375,0.04407002787292,-0.0366265799991786,0.0313508315533399,-0.0491661615669727,-0.0122941760346293,0.0104149105027318
4.4224130859375,0.04460685642967,-0.0256850608766078,0.146958739939332,-0.0629844143986702,-0.0045354734174907,0.0162942707538604
4.442462890625,0.0175748744561336,-0.1084008265513926,0.2441004327863454,-0.0919123366475105,-0.0143434461206197,0.0172705240547657
4.46251513671875,0.0219443765109404,-0.1250854193706065,0.0936468364685773,-0.1675725132226944,-0.0895127281546592,0.0644437372684478
4.482567138671875,0.065122862371616,0.0403579485472291,0.2543207980275154,-0.0853463560342788,-0.0314275920391082,0.0052885352633893
4.5026181640625,0.0194464587479829,-0.0007405161689966,-0.083043024867773,-0.0634792521595954,0.0016659735701978,-0.0017625668551772
4.522670166015625,-0.0072515602971427,-0.0372976111285388,-0.0428583139955997,-0.0644195973873138,-0.004492228385061,-0.0011607413180172
4.54272216796875,-0.0070972282519564,-0.0314953180579468,-0.0401782811313867,-0.0488813146948814,-0.0107699744403362,0.0022697676904499
4.56277294921875,-0.0412851646610535,-0.0355324280869215,-0.1711146915525198,-0.0061551458202302,0.0070382170379161,-0.0021986274514347
4.582824951171875,-0.010101542900782,0.0145633628815412,-0.0389583839476108,0.007047223392874,0.0284418575465679,-0.0054077710956335
4.602876953125,0.0952429465536028,-0.0183079562373459,0.3431687097817659,-0.0531031675636768,0.0253133419901132,0.0168540403246879
4.622927978515625,0.0535997257024981,-0.0486614473164081,0.2416267361491918,-0.0660049170255661,0.0002333293668925,0.0201071240007877
4.64297998046875,-0.0654068486784584,-0.0382216671708971,-0.0939081177532672,-0.0360230207443237,0.0102717392146587,-0.0060007134452462
4.66303125,0.0306794898967258,-0.040286161952652,-0.2114133841931819,0.0054935421794652,0.0252808593213558,-0.0058992821723222
4.6830830078125,0.0519238649121485,0.0004409487005323,-0.138340549197793,0.0327983610332012,0.0212596841156482,0.0110168112441897
4.703135009765625,0.0533357044714502,-0.0450444623956456,-0.0390542455375194,0.0417201109230518,0.0171275958418846,0.015643922612071
4.723186279296875,-0.0462730543425306,0.0074766194909811,0.0747778853476047,0.0322898291051387,0.0266852602362632,0.0073189516551792
4.743238037109375,-0.0218334086834453,0.001955043057911,0.1656990962445735,0.0145565457642078,0.0079119894653558,0.003476642537862
4.7632900390625,0.0391391108093783,-0.0357882660115137,0.0901753609657287,0.0097544053569436,-0.0042108604684472,0.0014490042813122
4.783341064453125,-0.0107748207861557,0.0150792034491896,-0.0566693972051143,0.0288280583918094,0.0100896302610635,-0.001213458366692
4.803393310546875,-0.0300165872748941,-0.0608384995833039,-0.018842063114047,0.0352206975221633,0.0159375853836536,-0.0033410224132239
4.8234443359375,-0.0538143913664855,-0.0438359999213367,0.0625076018393039,0.032842107117176,0.011511143296957,-0.0085910093039274
4.84349609375,-0.0663936860250309,-0.0406065895460545,0.101532621282339,0.0309870392084121,0.007292010821402,-0.0238896366208791
4.863548095703125,-0.0711154721162281,-0.0293130421154201,0.2082113732814788,-0.0042185024358332,-0.0012659523636102,-0.031584870070219
4.88359912109375,0.0188513606653548,-0.0167822079747915,0.1650935315668582,-0.0120637211948633,0.0051706046797335,-0.0358455963432788
4.903651123046875,0.0931400011912919,0.0231164524976164,0.0043336452901363,0.0050974506884813,0.0146998185664415,-0.0163238942623138
4.923703125,0.0540059866821393,-0.0100691932674497,0.0093476740598678,0.012584482319653,0.0141088003292679,-0.0131650613620877
4.94375390625,0.0148608114581555,-0.0642183512799441,0.0257826760321855,0.0147463083267211,-0.0041497461497783,-0.0165839660912752
4.963805908203125,-0.011727993325144,0.005719473625347,0.020445991179347,0.0204937309026718,0.0030597513541579,-0.0230345614254474
4.98385693359375,0.0009590908231213,-0.0020678192500025,0.0750280607163906,0.0097619127482175,-0.0012277076020836,-0.0229950807988643
5.0039091796875,-0.0276698962845839,-0.0191948220744729,0.079902388754487,0.0070019792765378,-0.0047660088166594,-0.0260646492242813
5.023961181640625,-0.0298263436661101,0.0059149961974471,-0.0111100075572729,0.0170708373188972,0.0012130686081945,-0.0329830795526504
5.044011962890625,-0.0411449890053831,-0.0083882544431835,0.0466296492278575,0.0087777897715568,0.0059951054863631,-0.0346714854240417
5.06406396484375,-0.0108542426979169,0.0051966918602585,0.087875267329812,0.0040019275620579,-0.0044219284318387,-0.0330221578478813
5.084115966796875,-0.0483520343073643,-0.0238989081121981,0.0310725991338491,0.009373415261507,0.0062957708723843,-0.03459994494915
5.104167236328125,0.0981262103723362,0.0423665849559009,0.0448825132995843,0.0090441554784774,0.0144571773707866,-0.0128729781135916
5.12421923828125,0.1000577994894236,-0.0584247895050793,0.1695709692418575,-0.0075087081640958,-0.0005291490815579,-0.0145023353397846
5.14427001953125,-0.0735291456618346,-0.0041289164982736,-0.0865028099328279,0.022202206775546,0.0155731942504644,-0.0254816133528947
5.164322265625,-0.0162108195613138,0.0009961714304983,0.0349491483062505,0.008152961730957,0.0084325531497597,-0.0266412608325481
5.184374267578125,-0.0398047168449498,-0.0106241968017071,0.1092886422365903,0.0029695930425077,0.006731275934726,-0.0285681877285242
5.20442529296875,-0.0119392249230295,0.0208956346429884,0.0952899275004863,-0.0092295575886964,0.0068000839091837,-0.0286833588033914
5.224477294921875,0.0153606324727647,-0.0012451777555048,0.1542220089405775,-0.0352999307215213,-0.000541259534657,-0.0185706727206707
5.244528076171875,-0.01024118883349,-0.0447981229517608,0.205055539599061,-0.0530641004443168,-0.004507984034717,-0.0177877452224493
5.264580078125,0.0050503421921283,-0.0449338050954043,0.0836567728519439,-0.0388344936072826,0.0087989000603556,-0.0115761114284396
5.284632080078125,-0.0239515881475061,-0.0491514227904379,-0.0243733937561511,-0.0193061809986829,0.0227564238011837,-0.0161474011838436
5.30468310546875,0.0044508967279456,-0.0774456432521343,0.0591881020277738,-0.0272576455026865,0.0304202437400817,-0.0124735385179519
5.32473486328125,0.0342327801978215,-0.07359305947721,0.2391115384578704,-0.0595660768449306,0.0409712642431259,-0.0007417120505124
5.344785888671875,0.0527952591855078,0.0063576984636485,0.2146124724954366,-0.0857415422797203,0.0509609021246433,0.0335416868329048
5.364838134765625,0.0402577030431479,0.0231064425602555,-0.0888981806367635,-0.0723115503787994,0.0018786210566759,0.024433709681034
5.38489013671875,0.0067948112392798,0.0193753662731498,-0.1965858174175024,-0.0405932813882827,0.0237327739596366,0.0334459170699119
5.404941162109375,0.0335158641001209,0.0062131023611873,-0.1713122599512338,-0.016696223989129,0.0074981567449867,0.042523231357336
5.424992919921875,-0.0295583221133798,-0.0888704523796215,0.1185392856627702,-0.0388674773275852,-0.0085009336471557,0.0319192223250865
5.44504443359375,-0.0837696769081987,-0.1036887764029204,0.087211250463128,-0.0422450713813304,-0.0206232629716396,0.0014277920126914
5.465096435546875,-0.0229008187192492,-0.0262486861087381,-0.0076858783274888,-0.0176781024783849,-0.0013226061128079,0.0066985860466957
5.485148681640625,-0.0080505834540352,-0.0159659231558442,-0.0848573808133602,0.0147845651954412,-0.0031631600577384,-0.004269141703844
5.505199951171875,-0.0126927101714536,-0.0681724957332015,-0.0387029478818178,0.0219941716641187,0.008868183940649,-0.0030433118809014
5.52525146484375,0.0403763244541361,-0.0025420491656288,-0.001782791763544,0.039587128907442,0.0089018382132053,0.0066974544897675
5.545302734375,0.0432135754403658,-0.0074161945406347,0.1398392633229494,0.0244865678250789,0.0074939392507076,0.0125493854284286
5.565354736328125,0.0961958998968824,0.0126601961413398,0.2596475460082292,-0.0015299754450097,0.01035762950778,0.0261042453348636
5.58540673828125,0.0653611646395176,-0.0455275332048535,0.1915390554219484,-0.0289379470050334,-0.0069685075432062,0.0196956116706132
5.605457763671875,-0.0129521648252382,0.0606031929900869,-0.0869441239595413,0.014645698480308,0.0152527643367648,0.0227449275553226
5.625509521484375,0.0634327903928235,-0.0515648040750995,-0.0061503393232822,0.0111774262040853,-0.0027867527678608,0.0216476470232009
5.645560546875,0.0477333178871311,-0.032745135455951,0.0779097536325454,0.0092751253396272,0.0051820492371916,0.0381317101418972
5.665612548828125,0.0473126813222654,0.1021720516970381,-0.1335065531700849,0.0414416678249836,0.0199098065495491,0.0502693727612495
5.685664794921875,-0.0103297804323956,-0.0275470188235864,0.2395318096965551,-0.0047204960137605,-0.0038189585320651,0.0394199378788471
5.7057158203125,-0.0566507838361896,0.0459015541490167,0.1730868684083223,-0.0165564436465501,0.0126547720283269,0.0344591401517391
5.725767578125,-0.091908303971868,0.0259495204990729,0.0572983427584171,-0.018058618530631,1.9278377294e-06,0.0196282360702753
5.745818603515625,-0.0236948369074612,-0.0788129860825836,0.1527344007313251,-0.0333028435707092,-0.0152014158666133,0.0170386675745248
5.76587060546875,0.0219912478599697,0.0326050693981349,0.0811041657596826,-0.035260871052742,-0.0011782338842749,0.0261381678283214
5.785922607421875,0.0459438589207828,-0.0418479679092764,0.1806008973002433,-0.0479714833199977,-0.013962997123599,0.022769097238779
5.805973388671875,-0.1121370904702693,-0.0026387510057538,-0.0459936894118785,-0.0186878535896539,0.0122239310294389,0.011237402446568
5.826025390625,0.0183733313574455,-0.0299875073108822,-0.0990232688099145,-0.007903846912086,-0.0001082406379282,0.0112670380622148
5.84607666015625,-0.0549902119465172,-0.0026403584409505,0.0905547156721353,-0.0241416729986667,-0.0075810709968209,0.000392286106944
5.866128662109375,-0.0155055208361707,0.0237614358702674,0.2022059953868389,-0.0465852282941341,-0.0111569613218307,-0.0030118040740489
5.8861806640625,-0.0469266046141274,-0.0178566322732716,0.1329302145868539,-0.0487366430461406,-0.0188107192516326,-0.0032328173983842
5.906231689453125,-0.00359813408982,-0.0432291931346058,-0.0222135853737592,-0.0307318679988384,-0.0143540650606155,0.0022873603738844
5.92628369140625,-0.0077465224735438,-0.0063764396967366,-0.0431406380683183,-0.0121638691052794,0.0038029849529266,0.0035844198428094
5.946334716796875,-0.026087485931348,0.0026945363136008,0.0676139850676059,-0.0180232618004083,0.0122676929458975,0.0037704748101532
5.96638671875,-0.0379937036339193,-0.0555920868298038,0.1940846482515335,-0.0458461679518222,0.0017575696110725,-0.002928941976279
5.986437744140625,-0.0116910771145485,-0.0524662464268505,0.1956669490069151,-0.0633206441998481,-0.0017335610464215,-0.0002481064293533
6.006489501953125,-0.00985997096356,-0.0410131975855678,0.1774818884968757,-0.0836359485983848,-0.0114352470263838,0.0003655268810689
6.02654150390625,-0.0102818861700594,-0.0465506291748955,0.0759913527905941,-0.0779057890176773,-0.0124708320945501,-8.27643088996e-05
6.046592529296875,-0.0450012077758088,-0.0257635329402983,-0.1157967089563608,-0.0429226346313953,0.0047494242899119,-0.0021526711061596
6.066644775390625,-0.0079869618996046,-0.0303414353150874,-0.0144271692812442,-0.0433680862188339,0.0159616190940141,0.0025099976919591
6.08669580078125,-0.0061554173571988,-0.0461374817967414,0.1603857922673225,-0.0641513168811798,0.0057202978059649,0.0069296071305871
6.10674755859375,0.0006225158125162,-0.012248181274347,0.0898918678492307,-0.0765657052397728,-0.0005685430951416,0.0154973994940519
6.126798583984375,0.0383353566784411,-0.0598723579648882,0.1402262168139219,-0.0939549878239631,0.0005251625552773,0.0120063219219446
6.1468505859375,-0.0125961909944191,-0.0620648995731025,0.0995230350255966,-0.1016675755381584,-0.0040332358330488,0.0059973378665745
6.166902587890625,-0.0116109610830433,-0.0285183115411549,-0.1493009191513061,-0.0680579841136932,0.0047276066616177,0.0128526501357555
6.18695361328125,-0.0177601861614733,-0.0384353099215775,-0.2606272046953439,-0.0227515064179897,0.006407544016838,0.0147034749388694
6.207005615234375,-0.0190037747480906,-0.0909405001193285,-0.0451712671130895,-0.0224760323762893,0.0050058495253324,0.0115871569141745
6.227056640625,-0.024619057346601,-0.117209059972316,0.2798269952058791,-0.0699041560292244,-0.0025104591622948,0.0109934229403734
6.247108642578125,-0.0977060852641239,-0.1249742506137117,0.4126975885599851,-0.1137244030833244,-0.0073262085206806,-0.0117126572877168
6.267160888671875,-0.0857759021640755,-0.0864883795486763,0.0838736304730176,-0.1040931567549705,0.0017997790127992,-0.0241326689720153
6.287211669921875,0.0006493490205146,-0.0080185443479567,-0.2396399462461471,-0.0542935580015182,0.0105886831879615,-0.0258599556982517
6.307263671875,0.0481627770792692,-0.0057609381468966,-0.1699427251636981,-0.031060367822647,0.0161630138754844,-0.0104167601093649
6.327314697265625,0.1163938345992937,-0.0880279006082564,0.1342483114480972,-0.0533438511192798,0.008591566234827,0.0049262777902185
6.34736669921875,0.0351238472860306,-0.0952482620495371,0.3047340574473142,-0.0948691219091415,-0.0078028962016105,0.0048479493707418
6.36741748046875,-0.0134313083779998,-0.0497931547600775,0.0730693278640508,-0.0660140365362167,0.0071241208352148,0.0030833384953439
6.387469482421875,-0.0385381492415443,-0.0078792820077389,-0.2806003176659346,-0.0116975726559758,0.0198979098349809,-0.0055037951096892
6.4075205078125,-0.036450675443001,-0.0594687090674415,-0.0502086767584085,-0.0121941436082124,0.0183565039187669,-0.0136152245104312
6.427572509765625,-0.0181600356666371,-0.0886237293432466,0.1915840636074542,-0.0355704464018344,-0.0051604644395411,-0.0149331800639629
6.44762451171875,0.0446829721394926,-0.0790711255621165,0.1890776337444782,-0.0376822687685489,-0.0010307440534234,-0.0115552581846714
6.467675537109375,0.045422355797328,-0.0272295686385594,-0.1212000293046235,0.0041482839733362,0.0073305955156683,-0.0047330735251307
6.487727294921875,0.0444159917663782,0.0271114038852974,-0.0357826765209436,0.0133303301408886,0.0085543179884552,0.004810363985598
6.507778564453125,0.0711326972456648,0.0308447817273437,0.0959995370745658,0.0002983212471008,-0.0067864707671105,0.0146399829536676
6.52783056640625,0.0434671848752535,0.0203047012788243,0.1994108117103576,-0.0298511050641536,-0.0107377786189317,0.0240152105689048
6.547881591796875,0.0573929622393101,0.0717854803322814,0.1920610334694385,-0.0429534800350666,-0.0140362735837697,0.0261608902364969
6.567933349609375,-0.0608176942572928,0.0810653863855637,-0.0789583859026432,-0.014727983623743,0.0074162073433399,0.0143311629071831
6.587985595703125,-0.0732234224472194,0.0894876344298943,-0.1802268032908439,0.0106384409591555,0.0103296441957354,0.0116110499948263
6.60803662109375,-0.0280550779435783,0.0851170363965444,0.053374447312951,-0.0035457781050354,0.0041636982932686,0.0200445391237735
6.628088623046875,-0.0047639081998728,0.0285367605132982,0.2277975327610969,-0.0459348410367965,-0.0099020078778266,0.0185625217854976
6.648139404296875,0.0160375818862579,0.031717874767445,0.1486503462880849,-0.0387572459876537,-0.0061853709630668,0.0135151650756597
6.66819140625,-0.0256875816272571,0.0821236084679141,-0.2014157217919826,0.005854208022356,0.0180375520139932,0.0072357007302343
6.688242431640625,0.0090820636599324,0.0679733381655998,-0.126279524526,0.0113616734743118,0.0121515747159719,0.010534293949604
6.70829443359375,-0.012414897877071,-0.0789727980204857,0.1899298666596412,-0.023438349366188,-0.0097571238875389,0.00486153177917
6.728345458984375,-0.0308050342388451,0.0091297204602509,0.0678816960930824,-0.0080975741147995,0.0029844855889678,0.0018220604397356
6.748397216796875,-0.0109571733494289,0.0766014840455725,-0.0644891310453414,0.0078680124133825,0.0257617477327585,0.003422918729484
6.768449462890625,0.0149423522617667,-0.0006172916481271,0.1346148066729307,-0.0109685584902763,0.0146829392760992,0.0005104490555822
6.788500732421875,0.0015215652777813,-0.0186778855282813,0.28769582888484,-0.0558573566377162,0.0072140335105359,-0.0010204697027802
6.808552734375,0.0017826638993807,-0.0459002572410739,0.3487292665183544,-0.0951561853289604,0.0024566566571593,-0.0043912627734243
6.828603759765625,0.0395874573650769,-0.0347395241435617,-0.0840548322588205,-0.0572226494550704,0.009407240897417,0.000843446701765
6.848655517578125,0.0410316100250929,-0.0343680056837387,-0.2886310639083385,-0.0032534417696297,0.0151566583663225,0.0032011773437261
6.86870654296875,0.0600135748001746,-0.0363595356939826,-0.1466290695935487,0.0158278867602348,0.0010362872853875,0.0107466094195842
6.888758544921875,0.0804532641028985,-0.0539884418922942,0.0659399143755435,0.0152913862839341,-0.0069064144045114,0.0174284167587757
6.9088095703125,0.0442541157355532,0.0003625040363054,0.1142412962079048,0.0189399793744087,0.0128556275740265,0.0217252913862466
6.928861328125,-0.0136826345242559,-0.0260965277543291,0.1979167737603187,-0.0116325467824935,0.0088237635791301,0.0145336221903562
6.948912353515625,-0.019997863819357,-0.038155260004336,0.203979434800148,-0.0292339548468589,-0.0063107898458838,0.0133282160386443
6.96896435546875,0.0091937804060988,-0.0120146008473355,0.0178957221746444,-0.0192460529506206,0.0001898412592709,0.0088368859142065
6.9890166015625,-0.0091023027303628,-0.006848797315685,-0.0489461094766855,0.0004640955012291,0.0109849199652671,0.0078236171975731
7.009067626953125,0.0298383628974668,0.0258702173183206,0.0248456874430179,0.0032721955794841,0.0111878663301467,0.0148955509066581
7.029119384765625,0.0535059830044396,0.0575200135519262,0.0989502035737037,-0.0106418188661336,0.0165453907102346,0.0474367476999759
7.049170654296875,-0.0457396598518826,0.0662856590732932,0.07057166582942,-0.0166858471930027,0.004127521533519,0.0193772781640291
7.069222412109375,-0.0344893670410849,-0.0295441200580913,0.1838023236900567,-0.0417410545051097,0.010322231799364,0.0041070156730711
7.089273681640625,0.004798997779563,-0.0514684858274646,0.1346650755554437,-0.1578709036111831,-0.0541080310940742,0.0809418782591819
7.10932568359375,-0.1658806998891756,0.2011028199179098,0.2770265508323907,-0.0604301169514656,-0.0317426174879074,0.0041408701799809
7.12937646484375,0.0539002612853422,-0.0688256989449262,-0.0513227754801511,-0.0160128511488437,-0.0050634988583624,-0.0073334630578756
7.149428466796875,0.0752584902050904,-0.063878150406992,-0.1312222416251897,0.007166457362473,0.000617743935436,9.93595458567e-05
7.1694794921875,-0.0279355797497555,-0.0095561839777044,-0.0094230773836374,0.0161448810249567,0.0082351136952638,-0.0020432882010936
7.189531494140625,-0.0215027884895913,-0.0462368139853701,0.1273632281094789,0.00392228923738,0.0145131684839725,-0.0119182541966438
7.20958349609375,-0.0273262522123754,-0.0433750587455462,0.1980272483974695,-0.0224874336272478,-0.0019862039480358,-0.0137439547106623
7.229634521484375,0.0096741112689487,0.0283223688439466,0.0478150596201419,-0.0138926301151514,-0.0044702147133648,-0.0168166756629943
7.2496865234375,-0.0192167599116452,0.0291014451913535,-0.0650116936147213,0.0064716855995357,0.0047802398912608,-0.0325574912130832
7.269737548828125,-0.01253099853741,-0.0066219297572504,0.0192342773020267,0.0130147282034158,-0.0019475729204714,-0.0384716652333736
7.28978955078125,0.0575564457053318,-0.0084293993043247,-0.0099853874415159,0.0311195254325866,0.0059826374053955,-0.0167678035795688
7.309840576171875,0.0536227595182135,-0.0113376057680696,0.0288543385624885,0.0318338274955749,-0.0045136022381484,-0.0154755767434835
7.329892333984375,-0.0472366752102971,-0.0282674785852432,0.0579646977126598,0.0288811065256595,-0.0034479431342333,-0.0371950827538967
7.349943603515625,0.0358885845808312,0.0152721870043314,0.0444090505689382,0.0287404283881187,-0.0087217558175325,-0.0315771140158176
7.36999560546875,0.1461337968898937,0.0669231532592326,0.1489209799230098,0.0124940164387226,-0.0135899689048528,-0.0130776995792984
7.39004638671875,0.1156702147661708,0.0472391776946373,0.1101198323637247,0.0013618308585137,-0.005112743936479,0.0036785434931516
7.4100986328125,0.1171589920192025,0.034810342623759,-0.0166582893341779,0.0195761136710643,-0.0032160291448235,0.0138750867918133
7.430149658203125,-0.0057814877445809,-0.0183777335379272,-0.0465086531966924,0.0278414860367774,-0.0073856581002473,0.0076748528517782
7.45020166015625,-0.0280535070409998,-0.0482279512699693,0.0529068298012018,0.0226605720818042,-0.0146248266100883,-0.0022836090065538
7.47025244140625,-0.0856583036663942,0.023341082433192,0.0522346296280622,0.0252984017133712,-0.0019555317703634,-0.0101294796913862
7.490304443359375,0.0234509816816076,0.0463345113393385,0.1237362697839736,0.0106309475377202,0.0040211235173046,-0.0077440897002816
7.5103564453125,0.0336869828833267,0.0257389008225407,0.1650333258122205,-0.0071300966665148,-0.0031245783902704,-0.0106562878936529
7.530407470703125,0.0191737062212079,0.0481991635669022,0.0318546894222497,0.0012446991167962,-0.0025447842199355,-0.0065059149637818
7.55045947265625,0.002532075760886,0.0184888840285129,-0.0302753112763166,0.00989281386137,-0.0008406275883316,-0.0016724490560591
7.57051025390625,-0.0248059034219011,-0.0260453638226725,0.0394189871966838,0.006418970413506,-0.0049617886543273,-0.0071669453755021
7.590562255859375,-0.0084890296702273,-0.0118043556301388,0.1475999604523181,-0.0049951034598052,-0.0072479052469134,-0.0074727125465869
7.610613525390625,-0.0013486746625974,0.0093692100382409,0.0634925212234258,-0.0011537278769537,-0.0015120920725166,-0.0095697529613971
7.63066552734375,-0.0120623763786628,0.0114828503245022,0.0567792873203754,0.0029344439972192,0.0119737517088651,-0.0160380396991968
7.65071630859375,-0.0087405750121921,0.0195131125097163,0.0877741450428962,-0.0039474312216043,0.0004168581217527,-0.0152523042634129
7.6707685546875,0.0115621900378726,-0.0124777796459849,0.1177180324077606,-0.0198810454457998,-0.0096874069422483,-0.0121396677568554
7.690819580078125,0.0416443533622659,-0.0311831925020087,0.0598094487965106,-0.0155668966472148,-0.0210013594478368,-0.0079443268477916
7.71087158203125,0.0127447691522538,0.0341251277054194,-0.12624211512506,0.0137805268168449,-0.0090400129556655,-0.0009934699628502
7.730922607421875,0.0261808267706073,-0.012892662323499,-0.010203414106369,0.0137839261442422,-0.0089391972869634,-0.0051145171746611
7.750974365234375,-0.0492070619678124,-0.0583316313289105,0.1833738691449165,-0.0066816513426601,-0.0227377507835626,-0.0199206601828336
7.771025390625,-0.0069831916845403,0.0089124975129961,0.0051005380094051,0.0156036652624607,-0.0027707833796739,-0.0160382706671953
7.791077392578125,0.0431295686850324,0.0664049289382528,-0.0881914936721324,0.0331822782754898,0.0063351658172905,-0.0029156771488487
7.811128662109375,0.0479027013709768,-0.0217825826785061,0.2719599150925874,-0.0194833725690841,-0.0080754403024911,0.0035465853288769
7.83118017578125,-0.0191717699924483,-0.0761315741120371,0.4297574444323778,-0.0731939151883125,-0.0197630356997251,-0.0078279795125126
7.8512314453125,-0.0642773879908025,-0.0628066395848058,0.0310363587766885,-0.0474179089069366,-0.020264659076929,-0.0236276444047689
7.871283447265625,-0.0037891814162023,0.0484008784177713,-0.2021913823395967,0.0011390813160687,0.0103180520236492,-0.0112644229084253
7.89133447265625,0.0180257600287906,-0.0398471129482611,-0.0627010785847902,0.0092413099482655,0.0117075387388467,-0.0108306929469108
7.91138671875,-0.0130287737254053,-0.028380556171434,0.2870493476748466,-0.0276213511824607,0.0040603531524538,-0.0140134710818529
7.9314384765625,-0.0615802943939343,0.0016323778416495,0.2407388473987579,-0.0533115938305854,-0.0119471680372953,-0.0182134062051773
7.951489501953125,0.0299969875252805,0.0370066014258656,-0.1255488721638918,-0.0112436162307858,-0.0114988889545202,-0.003456164849922
7.97154150390625,0.0108624260043725,0.0541398239285685,-0.1653705949425697,0.0029907468706369,0.0105254556983709,-0.0133755449205636
7.991592529296875,-0.0429767892761156,-0.0126863900285214,0.0527256280153989,-0.0041719190776348,0.0079705696552991,-0.0287844948470592
8.01164453125,0.1282842884771526,-0.0347248562973923,-0.0319961437195539,0.0061735068447887,-0.011519843712449,-0.0087414123117923
8.0316953125,0.1064800510892644,-0.0260243758335709,-0.1324970838665962,0.0363986417651176,-0.0109048532322049,0.0024598813615739
8.051747314453126,-0.0105707313151098,0.0177100725425872,-0.171366035965085,0.0778447762131691,0.0175786279141902,-0.0109317936003208
8.07179833984375,-0.0780244477870874,0.0195502570491749,-0.0244470435142517,0.0879911407828331,-0.002533805090934,-0.0127955423668026
8.091850341796874,0.0240115016411989,-0.0247001780251041,0.1141623857527971,0.0717255845665931,-0.0059374887496232,-0.0147710070013999
8.1119013671875,0.0758155030333437,-0.0046408115431666,0.1193032557725906,0.0626553297042846,-0.0172368083149194,-0.0148084228858351
8.13195361328125,0.0405074948194436,0.0198811969034373,0.0892716901242733,0.0577322579920291,-0.0189742762595415,-0.0162929706275463
8.152004638671874,-0.0125512193415313,-0.0089210826782509,-0.0075181205451488,0.06593719124794,-0.0017920937389135,-0.0219718962907791
8.172056640625,-0.1382765075182542,-0.0361308689041063,-0.2633803027957678,0.1245499923825264,0.049639631062746,-0.0506000146269798
8.192107421875,-0.1920957942555658,0.0122992356081493,-0.4456061709493398,0.2076149731874466,0.1242434233427047,-0.0771885812282562
8.212159423828124,-0.19248541462766,0.2029825875162146,-0.1627040060818195,0.2006988376379013,0.1609546840190887,-0.0809874162077903
8.23221044921875,0.2075820258693769,0.0137324650153517,0.4353378749132156,0.1055525094270706,0.1345332562923431,-0.0536938719451427
8.252262451171875,0.071446211041091,0.0278805981595069,0.6691214963465929,0.0305432621389627,0.0019436618313193,-0.0365093871951103
8.272313232421874,0.0572279170038644,-0.0482736170426011,0.7289636783689261,-0.0696927458047866,-0.0649449005722999,-0.0330760814249515
8.292365234375,0.0368247694524005,-0.0089245167443528,0.1740612663984298,-0.0508748181164264,-0.0090743917971849,-0.0267837941646575
8.31241650390625,-0.0441605739668942,0.0360108957862481,-0.3991553854197263,0.0325223505496978,0.0230230651795864,-0.0210182480514049
8.332468505859374,-0.1129621979164891,-0.0984547482069581,0.0430208110809326,0.0082907807081937,-0.018561927601695,-0.0345327258110046
8.352519775390626,-0.0560774774602614,-0.0622141353180632,0.297998027190566,-0.0271840449422597,-0.0444312021136283,-0.0393502861261367
8.372571533203125,0.0416100857664831,0.0894557049216702,-0.0655067836552858,0.0255881994962692,-0.0139697678387165,-0.0294722244143486
8.39262255859375,0.086501960549457,0.1289693481318652,-0.1949573394328355,0.0578736215829849,0.0032479604706168,-0.0136246485635638
8.412674560546876,0.0046367472894024,-0.0123605556076392,0.2026473094135522,0.0242011789232492,-0.0207381695508956,-0.0202924720942974
8.4327255859375,-0.0197179691657423,0.0343834772475063,0.0855658213436603,0.0206368677318096,-0.0179851986467838,-0.0214343033730983
8.452778076171874,-0.0011292962908744,-0.0230910988606512,0.193346981626749,-0.0060732122510671,-0.0355955027043819,-0.0200998950749635
8.472828857421876,-0.0476021840544417,-0.0620648995731025,0.2142056452602148,-0.0325211882591247,-0.0469525679945945,-0.0396768897771835
8.492880859375,-0.0809063233663328,0.0135418378140777,-0.0910199950963258,0.0022805915214121,-0.0170082356780767,-0.0432880371809005
8.512931884765624,-0.0151630732072051,0.0209650466173887,-0.165830613669753,0.031220506876707,-0.0055107409134507,-0.039382979273796
8.53298388671875,0.0575584367330186,0.0527950399897992,-0.0037134675651788,0.0330594815313816,-0.0080264117568731,-0.0250754449516534
8.55303466796875,0.0342088330666534,0.0359593482621014,0.0712871206223964,0.0315145999193191,-0.0117132095620036,-0.0245393831282854
8.5730869140625,0.0776426453952677,0.0366195657365024,0.0968096844136714,0.0142051130533218,-0.0190790891647338,-0.0199149698019027
8.59313818359375,0.0420486050479114,-0.0167901720855385,0.0731587597131729,0.0165026541799306,-0.0266127418726682,-0.0197917334735393
8.61318994140625,-0.0371935114332474,0.0165214746793732,-0.0757832629978656,0.0364910699427127,0.00495818676427,-0.0346226431429386
8.633240966796874,-0.1215956958250142,0.0171552060056477,-0.0681295333743095,0.0491098202764987,0.0227043367922306,-0.0647371038794517
8.65329296875,-0.1639007415857166,-0.0658365635989233,0.157846629178524,0.068566121160984,0.1355814933776855,-0.0478997975587844
8.673343994140625,-0.01559105282831,-0.2349889421025291,0.3078314389407635,-0.0104083530604839,0.0074153686873614,-0.1052426546812057
8.69339599609375,0.2391058028368279,-0.2014085248662158,0.1764993072003126,-0.0027796346694231,-0.0324528366327285,-0.0293474532663822
8.713447021484376,-0.0459624083576258,0.0705227121211588,0.292882291612029,-0.04663672670722,-0.0235970932990312,-0.0391115359961986
8.733498779296875,0.0926396778531838,0.0670393635174259,-0.1108434704631566,-0.0055087939836084,-0.0051429378800094,-0.0266279354691505
8.7535498046875,0.0873616643850225,0.0284906563492491,-0.0378863708019256,-0.0007478576153516,-0.0154455322772264,-0.0073837675154209
8.77360205078125,0.0340266357670072,-0.0784518246199935,0.1477151112645864,-0.0331420078873634,-0.0490864515304565,-0.0053859609179198
8.793653076171875,-0.0084321849164552,-0.0173342523669824,0.1272001465022564,-0.0356692634522914,-0.0422736778855323,-0.0064788246527314
8.813705078125,0.0130789695426821,0.0624014380510896,-0.0187520467430353,-0.0046633179299533,0.0053251152858138,-0.0062030209228396
8.833756103515626,0.0405723950155079,0.0401142029192298,-0.0389490315973758,0.0067827273160219,0.0069913249462842,0.0043689310550689
8.85380810546875,0.0791658911734819,-0.0634408641014248,0.2252250519245862,-0.0366875641047954,-0.0183624792844057,0.0087731014937162
8.873859130859374,0.0178050299501977,-0.0222981218520551,0.1778705955535173,-0.0450876429677009,-0.0217256136238574,0.0062292795628309
8.8939111328125,-0.0248181783815845,0.0117906832978129,-0.1164484508633613,-8.1746838986e-06,0.0108027523383498,0.0014914171770215
8.9139619140625,0.0759198584569618,0.0292733676921576,-0.1544125630766153,0.0325138308107852,0.013756014406681,0.0177595689892768
8.934013916015624,0.0659887219533324,-0.0099556498903781,0.0418751481771469,0.0277302004396915,0.0143651273101568,0.0222307834774255
8.95406494140625,-0.0527141750396229,-0.0956209495531395,0.1989174752354622,0.0046303756535053,0.0051779532805085,0.0091957123950123
8.974116943359375,-0.120162557749357,-0.0694281218174844,0.2331184355229139,-0.0222829934209585,-0.0017601624131202,-0.0058095399290323
8.994167724609374,-0.0055638081395998,0.0192871765330433,0.0539952095597982,-0.0144690154120326,0.0091429743915796,-0.0025771595537662
9.014219970703126,0.0638638204875402,0.1204479688283056,-0.1187777705937623,0.0155792459845542,0.0317243300378322,0.0117744477465748
9.03427099609375,0.111060026690131,0.0263726047493517,0.0212234052926301,0.0175592899322509,0.0057240705937147,0.021795954555273
9.054322265625,0.0236458101339638,-0.0951565469117835,0.0575105242043733,-6.70435838401e-05,0.0052500921301543,0.0200506523251533
9.0743740234375,-0.1009420441112015,-0.0957352966478094,0.020955109745264,0.0012798404786735,-0.0164435841143131,0.0065438328310847
9.094425048828125,-0.0782523473919834,-0.0183726189713925,0.1848562166571617,-0.0174805019050836,-0.00806868635118,0.0084885070100426
9.11447705078125,-0.0117925464613363,0.0085619305096566,0.1842547436326742,-0.0272707194089889,-0.0084009328857064,0.0101297125220298
9.134528076171875,0.0104438809318933,-0.0068808090222999,-0.0411228685051202,-0.0044555915519595,0.0222297962754964,0.0067521925084292
9.154580078125,0.014258662580233,-0.0296532338552176,-0.1014350061267614,0.0090455077588558,0.0160286724567413,0.0068992315791547
9.174630859375,-0.0999270583823788,-0.0146671155169606,-0.0085959789097309,0.0333036482334136,0.023197952657938,-0.0001812812406569
9.194682861328126,0.0038822391276713,0.0211545047748833,0.1416869370162486,-0.0010973586468026,0.0237334445118904,0.013874483294785
9.21473388671875,0.1907381873678416,0.0110937870748341,0.4012766153573989,-0.0638163536787033,-0.016712911427021,0.0451530441641807
9.234785888671874,0.0584728207647334,0.0125099740156903,0.1207972937226295,-0.0271955505013465,-0.0674909725785255,0.0338108390569686
9.2548369140625,0.1592485683983191,-0.1130794858869165,-0.1257791737884283,-0.0039713513106107,-0.016711177304387,0.047118455171585
9.274888916015623,-0.2111768354909494,-0.0018871289208531,-0.5722919381886721,0.0855461359024047,0.0221723206341266,0.0303020253777503
9.294940185546874,-0.1451813184706494,-0.0578010681161656,-0.0971884545981884,0.0736984610557556,-0.0164522249251604,0.0152942799031734
9.3149921875,-0.1344605476929806,-0.0471719394110143,0.2435714404761791,0.0233488623052835,-0.0322525911033153,-2.37561762332e-05
9.33504296875,-0.007526504781004,0.0262478458585217,0.1879524291068315,0.0295645408332347,-0.0200457107275724,-0.0009677468333393
