timestamp,acc_x,acc_y,acc_z,gyro_x,gyro_y,gyro_z
0.12896533203125,-0.4673958318226039,0.0284475843925029,-2.00023741363883,-0.0562517344951629,0.1178053244948387,-0.1883382797241211
0.149017333984375,-0.4489480287231505,-0.033672552499175,-1.5777175192445516,-0.051831804215908,0.2333753556013107,-0.1835953444242477
0.169070556640625,-0.1585208021130412,0.0930175986543297,-1.2241402281731366,0.0757420882582664,0.2435324341058731,-0.1060962677001953
0.189122314453125,0.0521791731137782,0.286491494596377,-0.6009352643489837,0.1951776444911956,0.1840285658836364,0.0220449268817901
0.20917431640625,-0.0078425301939249,0.3981649861428886,-0.0705932931393384,0.2904492318630218,0.10138850659132,0.113558679819107
0.22922607421875,-0.3165381116833538,0.3967074808109551,0.4950234050691127,0.3315971493721008,0.061394240707159,0.1039063930511474
0.249279541015625,-0.5974692687388509,0.4093285505183041,1.0848843176960945,0.2820824980735779,0.064080461859703,0.0556033998727798
0.269331298828125,-0.6515679386731237,0.4494429726332425,1.314818277963996,0.2386432588100433,0.0205265395343303,-0.0078633371740579
0.28938330078125,-0.5304688855249434,0.5634548439994455,1.0685165357410906,0.2315630912780761,-0.0886901170015335,-0.0376934967935085
0.309436279296875,-0.4288858857622369,0.7338656250663101,0.6568927138924598,0.2453127205371856,-0.183910384774208,-0.0679012015461921
0.32948828125,-0.6506345302805304,0.7761210777979344,0.3955541460573673,0.1938411295413971,-0.1936985105276107,-0.1311724334955215
0.349540283203125,-0.7390491651840507,0.7323159114062786,0.237737912017107,0.135343462228775,-0.1988005936145782,-0.2289503961801529
0.36959326171875,-0.7318142454944551,0.7797799656316637,-0.381910236108303,0.1813054084777832,-0.1416210830211639,-0.340199738740921
0.389645263671875,-0.4373614896953106,0.8507938222706317,-0.328518837660551,0.1515018790960312,-0.0035605335142463,-0.3599669635295868
0.409697265625,-0.2435739612268284,0.7883077016107738,0.1421001939922571,0.1082191243767738,0.0605502389371395,-0.3751251995563507
0.42975048828125,-0.1044754332685843,0.6814939250551164,0.2532107909590005,0.1350563615560531,0.009815027937293,-0.4018518924713135
0.449802490234375,-0.019557737102732,0.5532872318588197,0.8361807750284671,0.089373730123043,-0.014631038531661,-0.4122754037380218
0.4698544921875,0.0857436621285974,0.5025264741756021,1.0360521899878978,0.0270634740591049,-0.072521299123764,-0.401129812002182
0.48990673828125,0.4906658309141173,0.5523709937967359,0.5136217225551605,0.0631274357438087,-0.1643653213977813,-0.3807816207408905
0.5099599609375,0.2698692994888871,0.4420170604161917,0.3363853332519531,0.0355530343949794,-0.1294631212949752,-0.3705990016460418
0.53001171875,0.406119963735342,0.4066166612111032,0.1659457644820213,0.0638948008418083,-0.0954207181930542,-0.2966071963310241
0.55006494140625,0.3549723986916244,0.292509366646409,0.2564151399582624,0.0844984054565429,-0.1420190781354904,-0.2531065940856933
0.57011669921875,0.0965870546389371,0.1217998948939144,0.3970902695834636,0.0757252126932144,-0.1701597571372985,-0.2975388765335083
0.590168701171875,-0.0100873865112662,-0.02469254270792,0.5040361480861902,0.0005576303228735,-0.1105044037103653,-0.3286508619785309
0.6102216796875,-0.1380159203533083,-0.1461461083821952,0.3339507995814085,-0.0080826412886381,-0.1464875638484954,-0.4134297370910644
0.630273681640625,0.0059491907279938,-0.0966056862741708,0.1036971058398485,0.0559526681900024,-0.2257582396268844,-0.4279294908046722
0.65032568359375,-0.164425605710037,-0.2332395776845514,0.4321949007123708,-0.0086776800453662,-0.206557959318161,-0.464145302772522
0.67037890625,-0.1019606739686802,-0.3308876126185059,0.5016968914836645,-0.0822885110974311,-0.1478193253278732,-0.4765620827674866
0.690430908203125,0.0624005978008732,-0.2912627275861799,0.2974123362571,-0.0849414467811584,-0.1397122144699096,-0.4465707242488861
0.71048291015625,0.025759295156598,-0.373823668025434,0.0373994640678167,-0.0130348624661564,-0.2106604874134063,-0.4430171549320221
0.730535888671875,-0.0035268772182054,-0.505033196299523,0.0687485420554876,0.0110209332779049,-0.2690070569515228,-0.4521417319774627
0.750587890625,0.0418030145226977,-0.5154319868475199,0.1679647030889987,-0.009666540659964,-0.2716494798660278,-0.4439452290534973
0.770639892578125,-0.0625814890594221,-0.5504591688260436,0.0254395616829395,-0.0012972565600648,-0.2862419486045837,-0.4587897360324859
0.79069287109375,-0.0354355070510879,-0.5046358675450087,-0.0801794521301984,-0.0263073276728391,-0.2708416879177093,-0.471718817949295
0.810744873046875,-0.1037514115766622,-0.520975446318835,-0.2411971125602722,-0.0309793222695589,-0.2740637063980102,-0.4975914657115936
0.830796875,-0.2009231159694492,-0.5496745943196117,-0.4283364717185497,0.02824442461133,-0.2770422101020813,-0.5439081192016602
0.850849609375,-0.0251467527488246,-0.4803019290164113,-0.3028215018242597,0.0602443441748619,-0.240850493311882,-0.5644671320915222
0.870901611328125,0.0487628253316506,-0.4422058609865605,-0.0085199910640716,0.0289865247905254,-0.1338970214128494,-0.599148690700531
0.890954833984375,0.0616958835976198,-0.4968212482713162,0.471768201687932,-0.0619346611201763,-0.121604323387146,-0.6093345880508423
0.9110068359375,-0.0558351337714819,-0.4111412990286946,0.1734130316227674,-0.0594957210123539,-0.2114340513944625,-0.6424022912979126
0.931058837890625,-0.0839434534393716,-0.2561070969223976,-0.1999012255758047,-0.0209613423794507,-0.3374643325805664,-0.6706108450889587
0.951111572265625,0.0856991014676634,-0.1303276308730244,-0.2259779161185026,-0.0629318207502365,-0.441012293100357,-0.7129536867141724
0.971163818359375,-0.3109687871184199,-0.1180272444874048,-0.5954810905963183,-0.1998477131128311,-0.3155434429645538,-0.8429450988769531
0.9912158203125,-0.1749573932542465,-0.1903171124115586,-1.4157254608243703,-0.3094266355037689,-0.0801875591278076,-0.9653744101524352
1.011268798828125,0.5158128028586506,0.0734990975834429,-2.0076842225134373,-0.1852997094392776,0.1013411059975624,-0.8717785477638245
1.03132080078125,0.8791215066105127,0.4785605652417987,-1.8066507780373096,0.0675981938838958,0.2858036458492279,-0.6388471722602844
1.051373779296875,0.8702855083998292,0.3529655889138579,-0.655047962808609,0.2020785361528396,0.2650529444217682,-0.4819002151489258
1.07142578125,0.5609559763884171,0.173113464154303,0.6367845763653517,0.1914736628532409,0.1297533810138702,-0.3766761422157287
1.091477783203125,-0.0164260149482637,0.12504852142632,1.1223439875185488,0.2184415012598037,0.0456883013248443,-0.3477942645549774
1.11153076171875,-0.4562413275364786,0.2518814420513808,0.9597124621510504,0.2812797129154205,-0.0265944860875606,-0.3593048751354217
1.1315830078125,-0.7097963288232684,0.3041946898736059,1.0716729539453982,0.2200501859188079,-0.0942299142479896,-0.3973438739776611
1.151635986328125,-0.9738616182085126,0.3019837358258664,1.119381630581617,0.0559828802943229,-0.0897942557930946,-0.4567379057407379
1.17168798828125,-0.9578114508353172,0.4327355834603309,0.3240712106019258,-0.0293550118803977,0.0067348317243158,-0.4952788352966308
1.19173974609375,-0.6353522785399108,0.6052393912836909,-0.4299316319555044,-0.0038046932313591,0.0879935771226883,-0.4637320339679718
1.211792724609375,-0.4599398897934705,0.7016780504278838,-0.5007277541905641,0.0307213570922613,0.1819068491458892,-0.3960837721824646
1.2318447265625,-0.2960178131587803,0.7070968606062233,-0.1211520985096692,0.0961555540561676,0.2589214146137237,-0.324560672044754
1.251897705078125,0.2307313942559063,0.6839106308080256,0.1396679984092712,0.1689215749502182,0.2310192584991455,-0.2345409542322158
1.27194970703125,0.0609728300200775,0.4117155917853117,0.7808774054795503,0.1445611119270324,0.246204063296318,-0.2027153819799423
1.292001953125,-0.4610622448869049,0.1700343489699065,1.1139280413508414,0.0458556339144706,0.3279289901256561,-0.2291063219308853
1.3120546875,-0.5007720317237079,0.1337481068409979,1.2666852384358644,0.0074501405470073,0.2924997508525848,-0.2348480373620987
1.332106689453125,-0.4520872765969485,0.0729410253092646,0.8658885155498981,0.0814068913459777,0.0425190441310405,-0.2668019533157348
1.352159912109375,0.0969457684161141,-0.0785305158793926,1.0613386069357396,-0.0162086151540279,-0.116998441517353,-0.215630903840065
1.3722119140625,-0.6597372166033834,0.0279684956386685,0.8037193518847227,-0.1079598218202591,-0.0531261786818504,-0.2680301964282989
1.3922646484375,-1.0588707555174828,-0.254385826087743,0.3063093439400196,-0.1724801957607269,0.1338017731904983,-0.3974071145057678
1.412316650390625,-0.8222608246169983,-0.3708893681392073,0.8575736916691065,-0.31311896443367,0.1471748799085617,-0.3859902918338775
1.43236865234375,-0.2458060676604509,-0.4686228893995284,0.7689075662225484,-0.2828503847122192,0.0014514690265059,-0.3031089007854461
1.452421875,-0.4315635805388912,-0.5079670577943325,0.2992553337752819,-0.1323587447404861,-0.0463409721851348,-0.2580430209636688
1.472473876953125,-0.5219787781424821,-0.5990237316392362,0.2334247249931096,-0.0046272468753159,0.0219461657106876,-0.2249845564365387
1.492526611328125,-0.847566969178617,-0.8107857831396162,0.6008616145908833,0.0096560548990964,0.0788596272468566,-0.243200808763504
1.512578857421875,-0.7908357587836682,-0.9970203024126588,1.1865648230165242,-0.0775714665651321,0.0468513295054435,-0.272245854139328
1.532630615234375,-0.7808351007077843,-1.1067413447171448,1.0590034419864416,-0.1030010133981704,0.0409762784838676,-0.315911203622818
1.552683349609375,-0.8344174916829913,-1.1086278891161083,0.7797147914409637,-0.1434663832187652,0.1178379952907562,-0.3786172270774841
1.5727353515625,-0.4949735015127807,-1.1431021133869883,0.6183569392710924,-0.1876431852579116,0.0944487079977989,-0.3785562217235565
1.59278857421875,-0.2592988787010312,-1.0539899246733635,-0.0794347712427377,-0.1282703131437301,0.0324333161115646,-0.3528752028942108
1.612840576171875,-0.0385470266677439,-0.8892243829518556,-0.3473994792193174,-0.1281305700540542,0.0312593579292297,-0.2890375256538391
1.632893310546875,-0.1417171129588037,-0.8996039573427289,-0.5465472560793161,-0.1175082549452781,0.102358378469944,-0.2556072175502777
1.6529453125,-0.2133829307004809,-0.8775522845324129,-0.7223626726686954,-0.0718593299388885,0.2236114144325256,-0.1873111724853515
1.67299755859375,-0.125100836135447,-0.8759565397735685,-0.6988216380834579,0.0045624021440744,0.2925039827823639,-0.1257242113351822
1.693050537109375,-0.1794808072291314,-0.9297298502109944,-0.0533832151412963,-0.0196516066789627,0.3480290472507477,-0.0945342928171157
1.7131025390625,-0.2134435748465359,-1.065326069136709,0.7041612455457449,-0.1324783861637115,0.1672214269638061,-0.0717761293053627
1.73315576171875,-0.1918890379033982,-0.9869377382069826,0.652496524760127,-0.2078465819358825,-0.1020029038190841,-0.0767845436930656
1.75320751953125,-0.3749606361661106,-0.7653302922576666,-0.3133756290644407,-0.2521959841251373,-0.1470339894294738,-0.1005622372031211
1.773260498046875,-0.3907881006993353,-0.6078499391082673,-1.2422428710967302,-0.2930624783039093,-0.0528196059167385,-0.1481763571500778
1.7933125,-0.2205731344655156,-0.5253534422073513,-2.1768752525269983,-0.2646943628787994,-0.0513530038297176,-0.1405917853116989
1.813364501953125,0.121770303473249,-0.2510973790016025,-2.986826192277669,-0.0973125845193862,-0.0269285067915916,-0.0616500899195671
1.833417724609375,0.3383357366673648,0.0077593088898807,-2.825634928846359,0.0476499944925308,0.0548060722649097,0.0785559713840484
1.8534697265625,0.2676697436179965,0.1315584878422319,-1.99824185590744,0.1507813781499862,0.0966645330190658,0.1413064897060394
1.8735224609375,-0.1669113946437835,0.1013753118287771,-1.0641939963668583,0.2085915058851242,0.0692957267165184,0.145680621266365
1.89357470703125,-0.333193040016666,0.1836355888210236,-0.3289507993370294,0.1853344887495041,0.120346575975418,0.1511000543832779
1.913627685546875,-0.5565682993561029,0.4205341274045407,-0.3399953404426574,0.2562189996242523,0.1297577023506164,0.101863332092762
1.933679443359375,-0.5116302564769983,0.600148644015938,0.0797515821069479,0.2676400244235992,0.1068407073616981,0.0963508114218711
1.953732666015625,-0.351898544204235,0.7700748564362525,0.6897399214833975,0.2499284297227859,0.0353690721094608,0.0847726613283157
1.973784423828125,-0.4418293558243661,0.8102730843771249,0.7164058100908994,0.2197976559400558,-0.0258681494742631,0.0332903265953063
1.99383642578125,-0.3913734993718564,0.9050359192635864,0.7744289599925279,0.1605823189020156,-0.1306393444538116,-0.0097067076712846
2.013889404296875,-0.415101727092266,1.0430669641207904,0.3758353001087903,0.1439936310052871,-0.1799544245004654,-0.0646990090608596
2.03394140625,-0.5446894993834197,1.207120265919715,-0.2471756024479866,0.1416486948728561,-0.0858905911445617,-0.1377178132534027
2.05399462890625,-0.4276538962818682,1.2098271867908537,-0.1579693787753582,0.0773100927472114,0.0462044849991798,-0.1640246957540512
2.074046630859375,-0.1620494146306067,1.2369777901753782,-0.2525415133953094,0.1275534778833389,0.0566038228571414,-0.1615542471408844
2.094099365234375,-0.1563556599684059,1.2648857877984645,-0.0412684144556522,0.1724888533353805,0.0701875463128089,-0.1272139847278595
2.114151611328125,-0.0927755335267633,1.0538066039957106,0.8676695537477731,0.0990961492061615,0.0321594662964344,-0.1031283810734748
2.13420361328125,-0.1436472042385488,0.8457698566287756,1.38446873729527,0.0559181720018386,-0.0492200776934623,-0.0938058421015739
2.154256591796875,-0.2489600016467273,0.643418753682822,1.1770242567330598,0.0534497052431106,-0.105899341404438,-0.1345043033361435
2.17430859375,-0.2989695756364613,0.4705380753710865,1.0750421381175517,0.0043472172692418,-0.0700176507234573,-0.1551526486873626
2.194361572265625,-0.135201301323995,0.2895164684407413,0.877927328389883,-0.010295420885086,-0.1150258332490921,-0.1571036428213119
2.21441357421875,-0.1717732285264879,0.1797917728744447,0.6236386790663003,0.0360966548323631,-0.154568076133728,-0.1776334792375564
2.234466552734375,-0.204100065505132,0.0937552652791142,0.4253688540846109,0.0560168847441673,-0.1729967296123504,-0.2069245725870132
2.2545185546875,-0.2172907517939805,-0.07418985632658,0.6071119071573019,0.0016923598013818,-0.2104545086622238,-0.2353058606386184
2.274571533203125,-0.2315859652586281,-0.156992350436747,0.50994858700037,-0.0100930836051702,-0.2617428004741668,-0.2851989567279815
2.29462353515625,-0.3333239729199558,-0.2269521679781377,0.0527916789889335,0.0199127364903688,-0.2847563028335571,-0.358993262052536
2.314676513671875,-0.3987989001322537,-0.1638926313444972,-0.1176636718720197,-0.0153137724846601,-0.1433537006378173,-0.4208845496177673
2.334728759765625,-0.1965552761487662,-0.252187877652049,-0.2590110016703605,-0.0370723940432071,-0.1301201432943344,-0.4589079916477203
2.354780517578125,0.0149885660236701,-0.2753743997111916,-0.4447171131551265,0.0216839127242565,-0.2254441231489181,-0.444264143705368
2.37483349609375,-0.0659597515871748,-0.2626011351168155,-0.3477589601814747,0.0485636964440345,-0.2823173999786377,-0.4542016983032226
2.394885498046875,-0.1737350666513666,-0.2810132823809981,0.0070838207811117,0.003925263416022,-0.249570295214653,-0.4920525550842285
2.4149384765625,-0.2262105192979797,-0.2830615932129323,-0.183085699853301,-0.01194454357028,-0.1932741552591323,-0.5347373485565186
2.434990478515625,-0.1241094139453023,-0.321540961471945,-0.3497960189670324,0.0036401499528437,-0.2460265904664993,-0.5303649306297302
2.45504345703125,0.1389987208455801,-0.2511329617716372,-0.4380132316023111,0.0870702490210533,-0.2546424865722656,-0.5012940168380737
2.475095947265625,-0.0193117995176464,-0.261807646651566,-0.6124591134041547,0.1479621678590774,-0.2670234739780426,-0.502678394317627
2.495148681640625,-0.0986419778747484,-0.4633309204712509,0.270489258018136,0.0589317604899406,-0.2813568711280823,-0.5178138017654419
2.515200927734375,-0.1007963063644245,-0.4369422413699328,0.1692132418453693,0.0778445228934288,-0.3262197077274322,-0.5409010648727417
2.53525390625,-0.1008370767662301,-0.3878445945933461,-0.0903302592664957,0.1105304583907127,-0.2977001368999481,-0.5510370135307312
2.555305908203125,0.0326727460731752,-0.4675213578984141,-0.0151964000880718,0.1309052854776382,-0.3166735768318176,-0.5597918629646301
2.57535791015625,0.1020303964703343,-0.4851214581273496,0.137803373581171,0.1348839849233627,-0.3745381832122803,-0.5733523964881897
2.595410888671875,0.0891388940574601,-0.4896927115656435,0.3148275814384222,0.0516140349209308,-0.4601346850395202,-0.6085502505302429
2.615462890625,-0.2438108387226238,-0.400905443957448,-0.0329255335241556,-0.0444528870284557,-0.4397904872894287,-0.7055382132530212
2.635515869140625,-0.3470314861571416,-0.340779476557672,-0.4437584972560405,-0.181701198220253,-0.3637153208255768,-0.8270817995071411
2.65556787109375,-0.0061098611824214,-0.2064326731711626,-0.7788391776502132,-0.2689763307571411,-0.301617294549942,-0.886006236076355
2.67562109375,0.3805661280229687,0.0519965830884873,-1.4751877036184071,-0.2013991922140121,-0.1960141658782959,-0.8897330164909363
2.695673095703125,0.8827399893686175,0.17307707766667,-1.5561837328284978,-0.1444266438484192,-0.0401530787348747,-0.7820119261741638
2.715725830078125,1.2804171189293263,0.1754709870658815,-0.8100076383739709,-0.0912433564662933,-0.0012678829953074,-0.6144660115242004
2.735778076171875,1.1047712136879562,0.280894039915502,-0.6003437281966209,0.0497560426592826,-0.0376837216317653,-0.5000659227371216
2.7558310546875,0.928215938516706,0.4551426455795764,0.1875613839626312,0.0941247940063476,0.0194299314171075,-0.3533903956413269
2.775883056640625,0.4657284831322729,0.4416631324119865,0.980379402604699,0.1037240102887153,0.0413205847144126,-0.2852950692176819
2.795934814453125,-0.0066717670982121,0.4795142857700586,1.2189508428364992,0.1294707357883453,-0.0188116878271102,-0.2597192525863647
2.81598779296875,-0.2423004706922918,0.4607055404037237,1.4283680847764015,0.1033150926232338,-0.0299860872328281,-0.2746071815490722
2.836039794921875,-0.6070107848703861,0.39101708714962,1.559877911171317,0.0052877683192491,-0.0205333121120929,-0.3489428460597992
2.8560927734375,-0.7021395304597914,0.3716689742095768,1.417333480542898,-0.0943092182278633,-0.0520399510860443,-0.4332464337348938
2.876144775390625,-0.6852672330487519,0.4824734278365969,0.9564391395688056,-0.1630938500165939,-0.0695349052548408,-0.4720971882343292
2.896197998046875,-0.587561513110809,0.6056098320312797,0.1323603057444095,-0.1574085801839828,-0.0033651709090918,-0.469399631023407
2.916249755859375,-0.4529522593958303,0.6171119076460599,-0.3602899404525757,-0.1474118530750274,0.0233683362603187,-0.4479870200157165
2.936302734375,-0.31073103283979,0.4802284984540194,-0.4396288501054048,-0.1300648152828216,0.0936243832111358,-0.4194544553756714
2.95635498046875,-0.2823145742379129,0.3346839361615479,-0.217058696603775,-0.0869871899485588,0.2645907700061798,-0.4131264686584472
2.976407958984375,-0.1621382984904572,0.1847275487761944,0.2355085455298423,-0.0326995477080345,0.3654385209083557,-0.3615906834602356
2.9964599609375,0.0239313125444576,0.0109210608564317,0.933077553203702,-0.0449526906013488,0.2980504631996155,-0.3100641667842865
3.016511962890625,-0.0753881992656737,-0.2132091085035354,1.4479226800739764,-0.1157660335302352,0.1045407578349113,-0.2861437797546386
3.03656494140625,-0.2842532506829127,-0.3961147025495767,1.3454957403004169,-0.1744813919067382,-0.054759606719017,-0.3048406541347503
3.056616943359375,-0.627312179947272,-0.4001761798348278,0.6513274809807539,-0.1617873907089233,-0.0183061845600605,-0.3451673984527588
3.076669921875,-0.833356511387974,-0.4894597065273672,0.0884352393001318,-0.1381124854087829,0.1099225506186485,-0.400698184967041
3.096721923828125,-0.7433974235214292,-0.6253782162100077,0.166953480219841,-0.1597743928432464,0.1666996628046035,-0.4344265758991241
3.11677490234375,-0.6464681313160806,-0.7290172351870685,0.2792448114037513,-0.1506069302558899,0.1513791680335998,-0.4356994032859802
3.136826904296875,-0.5939223533796146,-0.848320783220604,0.2281172662347555,-0.1083040907979011,0.1446001082658767,-0.4333021342754364
3.1568798828125,-0.5204787123104557,-0.9898131475128232,0.4737310261934995,-0.088291972875595,0.1473013907670974,-0.4107718169689178
3.17693212890625,-0.4217120120774954,-1.0881850397419184,0.550243772509694,-0.0566629543900489,0.1423819214105606,-0.3829098343849182
3.19698388671875,-0.4706030668986961,-1.194714738659188,0.6033242053121328,-0.0400016494095325,0.1450689285993576,-0.3793665170669555
3.217037109375,-0.5194492596648633,-1.3002870637863877,0.5472369919091463,-0.0181582644581794,0.1845103651285171,-0.3885553777217865
3.2370888671875,-0.3316615561330691,-1.3556997389286756,0.7149158637940883,-0.0176422223448753,0.1747791320085525,-0.3564543426036834
3.257141845703125,-0.1059282989580184,-1.417870948420465,0.7622136215418577,-0.009966991841793,0.090099923312664,-0.3128360211849212
3.27719384765625,0.0104199794664978,-1.4174927627578378,0.641060353988409,-0.0319995880126953,-0.0255798045545816,-0.2588036954402923
3.297246826171875,0.0559811592126265,-1.4125903776690365,0.2769002941042184,-0.024822087958455,-0.1462186127901077,-0.2087863534688949
3.317298828125,0.0503941163279116,-1.3019164185538887,-0.5974643733680248,0.0252537485212087,-0.1801475882530212,-0.1800219267606735
3.337351806640625,0.0518400773525238,-1.3236819678992031,-0.724062462323904,-0.028028255328536,-0.0954726412892341,-0.1588882654905319
3.35740380859375,0.0319587708512321,-1.324689683637023,-1.3474363529741764,0.0282359290868043,0.1136761680245399,-0.1590338051319122
3.377455810546875,0.0838584329038858,-1.2775281194895505,-1.3846481855154036,0.0433314926922321,0.347065657377243,-0.0993035808205604
3.397509033203125,0.1889195936385542,-1.4914305440194904,-0.5773322704434395,-0.0027832409832626,0.3987526297569275,-0.054562259465456
3.41756103515625,0.2321093315456062,-1.6788333764195442,-0.3150730806320905,-0.0451759994029998,0.1829146593809127,0.0063807168044149
3.43761376953125,-0.1034477341886609,-1.583533804307878,-1.032290207105875,-0.0094148116186261,0.04543923959136,0.0020483387634158
3.457665771484375,-0.4939410166598856,-1.2533711449630558,-1.8521102144420143,-0.0002382919192314,0.0422598496079444,-0.0535942502319812
3.47771826171875,-0.4928478876609355,-0.9021591947834938,-1.965867526525259,-0.008794997818768,0.0628249272704124,-0.0878843367099762
3.497770263671875,-0.6077190792702138,-0.4451346079148351,-2.3035201032340527,0.0565645992755889,0.15069679915905,-0.1372013390064239
3.517822265625,-0.3527214048944413,0.0559825109194964,-2.036695212942362,0.0966709852218627,0.2229761332273483,-0.1125840693712234
3.537875244140625,0.0922944720115512,0.5140699777793138,-1.198156476610899,0.1333028823137283,0.1742263585329055,0.0207728184759616
3.55792724609375,0.2438224926277995,0.7721912640683353,-0.5729127004355192,0.1839673817157745,0.1032862663269043,0.1209726333618164
3.57797998046875,0.2263778021562844,0.95106248803176,0.3082943802773952,0.1693863570690155,0.1079047471284866,0.2217551320791244
3.598031982421875,0.1462431390158832,1.1198493211586027,0.5357575665175914,0.1954052895307541,0.1463904678821563,0.3097626268863678
3.618085205078125,0.0930116073049604,1.182523730932176,0.9003262072026729,0.2187557965517044,0.1320075690746307,0.4027984142303467
3.63813720703125,0.2115441709659993,1.269683689599484,0.9584884733140469,0.2792904376983642,0.0264994800090789,0.5273105502128601
3.658190185546875,0.1334063807312399,1.306187666132301,1.2153075178980826,0.2982688844203949,-0.1439364999532699,0.608538031578064
3.6782421875,-0.2032696060303598,1.3060318910486994,1.7845903373986485,0.1705406904220581,-0.2727345526218414,0.5895266532897949
3.698294189453125,-0.8560466282323003,1.248687955582887,1.464814778164029,0.0596916936337947,-0.3329847455024719,0.4283986985683441
3.71834716796875,-1.0624009024050085,1.2830866303995252,0.5922358250647783,-0.0008121745195239,-0.3223253488540649,0.2263766825199127
3.738399169921875,-0.6924477922026068,1.3177477555446326,-0.0308072261959314,-0.0778740122914314,-0.246135801076889,0.1048969477415084
3.7584521484375,-0.3387091000244021,1.3419545605622232,-0.6722071874022484,-0.0644232332706451,-0.1268256157636642,0.0567414313554763
3.77850439453125,0.108758627013117,1.3618623532116412,-0.8992921879798174,-0.002429733518511,-0.015715654939413,0.0605520009994506
3.798556396484375,0.237846048566699,1.264221040279418,-0.0834007522642612,-0.033127024769783,0.0641674101352691,0.0613675862550735
3.818609130859375,0.2532304455075412,1.0537320774547756,0.84648881855309,-0.1153486222028732,0.0365869328379631,0.0266880895942449
3.8386611328125,0.363828928233683,0.8745345441464334,1.1932716271787882,-0.1891562640666961,-0.0171386133879423,0.009653178974986
3.85871435546875,0.497184382495284,0.8073499634720385,1.0586059671014547,-0.2051268965005874,-0.0429539270699024,0.0201331693679094
3.878766357421875,0.7000918041497468,0.7306075731184333,0.7949316497951745,-0.2238124758005142,-0.0684708952903747,0.078125961124897
3.898819091796875,0.6676808690842241,0.5427228754855692,0.5269412228554486,-0.2097103744745254,-0.0659606754779815,0.1275279819965362
3.918871337890625,0.6185593299753963,0.412368648866564,0.1802086831122636,-0.1550941914319992,-0.0855567678809166,0.1626827418804168
3.938923095703125,0.4342263700073585,0.1751089488204568,0.4466057033807039,-0.1691422164440155,-0.0966273099184036,0.1914822608232498
3.95897607421875,0.288615647143498,-0.0333222046915441,0.3001157499969005,-0.1321597546339035,-0.1289183646440506,0.2058297991752624
3.979028076171875,-0.0716430944532156,-0.3108453799344599,0.3530746022462844,-0.1188177838921547,-0.1892929375171661,0.1625155955553054
3.999081298828125,-0.3500947827178984,-0.5267197621244937,0.3544833000004291,-0.0949193313717842,-0.2049987167119979,0.0908951759338378
4.01913330078125,-0.469627426799573,-0.6800364197231829,-0.0084977792322635,-0.0599149875342845,-0.2117061913013458,-0.001063043018803
4.03918505859375,-0.535539430254884,-0.8309135752152651,0.0671335080742836,-0.068894624710083,-0.1725410670042038,-0.0865670070052146
4.059238037109375,-0.5880928435085341,-0.9746634361106902,-0.1936982792824506,-0.031791552901268,-0.169821634888649,-0.195433497428894
4.079290283203125,-0.6526590949106961,-1.1079142609540371,-0.1024643491744995,-0.0366751216351985,-0.1453370004892349,-0.2939077317714691
4.09934326171875,-0.3803829534757882,-1.1154993092555552,-0.0039513679742813,-0.0248494502156972,-0.1293588876724243,-0.3556021451950073
4.119395263671875,-0.3003092267423868,-1.133849497199431,0.0489946247935295,-0.0155120128765702,-0.1589687764644622,-0.421114981174469
4.139447265625,-0.2561820618547499,-1.1267467525221406,0.2736456762224435,-0.0903801470994949,-0.1580389440059662,-0.4872399568557739
4.159500244140625,-0.2726382710118777,-1.1469806353207677,-0.0440934087485075,-0.1502157002687454,-0.1300940811634063,-0.5878691673278809
4.17955224609375,-0.1115341561410576,-1.084993696354702,-0.5020511117488146,-0.1388937085866928,-0.2098514437675476,-0.6525203585624695
4.199605224609375,0.2707382643431425,-0.7528353331480174,-1.3719482784181831,0.001294408692047,-0.2226402908563614,-0.6036021709442139
4.2196572265625,0.6832135884545744,-0.5312278141334652,-1.6741028407663106,0.1259473711252212,-0.1997743993997573,-0.4992116689682007
4.23970947265625,0.6037973027165979,-0.5374388706680387,-1.209174714231491,0.1877848505973816,-0.2065234780311584,-0.4453547298908233
4.25976220703125,0.2575721279736608,-0.6129252696111798,-0.3869038066118955,0.1089873537421226,-0.2993049323558807,-0.477510929107666
4.27981396484375,-0.085977799678035,-0.5503223907038569,-0.4527957901924848,0.0577355660498142,-0.3920025527477264,-0.5519790053367615
4.299867431640625,-0.2286342758461833,-0.3433553183950483,-1.2764952693104743,0.0437612943351268,-0.3324655294418335,-0.6243393421173096
4.319919189453125,-0.0507418337870389,-0.1990786571465432,-1.5522458088576794,0.0311901681125164,-0.1853165179491043,-0.6533718109130859
4.33997119140625,0.1406349072126671,-0.1131148494612425,-1.392163383451104,0.0474261417984962,-0.0922632068395614,-0.6617876887321472
4.360024169921875,0.4316411758197471,-0.021054916857928,-0.7672966238945722,0.0672416165471077,-0.0286285281181335,-0.6340937614440918
4.380075927734375,0.7175199818778782,0.0717637982234358,-0.0520668718457221,0.046519000083208,0.018045537173748,-0.5703372955322266
4.400129150390625,0.834539364496991,0.2385903641279786,0.0541793339550495,0.0992567390203476,-0.0147425066679716,-0.4422983825206756
4.42018115234375,0.8592628137998283,0.4059674035221338,-0.0111117611229419,0.2277833074331283,-0.0903963968157768,-0.2952932119369507
4.440233154296875,0.513821555976197,0.4828791590932756,0.2918430116921663,0.2923637926578522,-0.0691422149538993,-0.2257539927959442
4.460286376953125,0.0759337408518418,0.4504349793452769,1.0798416473537682,0.2218120098114013,-0.005228073336184,-0.2238553017377853
4.48033837890625,-0.1678282172277569,0.5036316589385271,1.4769734179913996,0.1730831861495971,0.0942608118057251,-0.2551177144050598
4.5003916015625,-0.3858232448335736,0.600420373629406,1.2545084784299134,0.1443811208009719,0.124195359647274,-0.2905624210834503
4.520443603515625,-0.2624560275577008,0.7250448974899947,1.6191636283546684,0.0642776191234588,0.0863403230905532,-0.2589649558067322
4.54049560546875,-0.2070782775983214,0.9206975257106124,1.0523527519255875,0.0697349235415458,-0.0110465791076421,-0.2127529233694076
4.560548583984375,-0.5325656020758673,0.8593912624850869,0.910132146424055,-0.0206768121570348,0.012080056592822,-0.227602869272232
4.5806005859375,-0.7026685958351939,0.7916696523245423,0.5716740985512733,-0.0966296792030334,0.108008287847042,-0.2799032926559448
4.60065283203125,-0.590274827190116,0.6514817216943949,0.2475146251440048,-0.1445534229278564,0.1868899166584015,-0.2816046476364136
4.62070556640625,-0.0609003493057563,0.4509483356948942,0.3402373325049877,-0.1400731205940246,0.1947342306375503,-0.2250213474035263
4.64075732421875,0.1784183290967717,0.2947235355645418,0.2192073990702629,-0.0763239860534668,0.2220288962125778,-0.1306876391172409
4.660810791015625,0.3254106425121426,0.1073828086152672,0.640269495871663,-0.0491370409727096,0.2036985903978347,-0.0293099526315927
4.680862548828125,0.1297248974732123,-0.185475298403576,0.9759826289504766,-0.0417037494480609,0.1245785430073738,0.0311623215675354
4.70091455078125,-0.0779356369924731,-0.3126743489272892,1.2093553314954042,-0.0753364264965057,0.0465585067868232,0.0706006661057472
4.72096728515625,-0.4231999856129288,-0.5017079243343323,1.0655810668110848,-0.1138802170753479,0.0071954517625272,0.0338984541594982
4.74101953125,-0.6426371748510747,-0.5337946689467877,0.8075771963566541,-0.1780183762311935,0.0289931297302246,-0.013090431690216
4.761071533203125,-0.6672841248515993,-0.5587270117599517,0.1868780778735876,-0.1713405549526214,0.0897303521633148,-0.0393637865781784
4.78112451171875,-0.6020615649651736,-0.5748571125015616,-0.0977940192759037,-0.1637094467878341,0.1281375437974929,-0.0496865212917327
4.801176513671875,-0.4909646677302196,-0.7127182076193392,-0.1026549033105373,-0.1414967477321624,0.1820105612277984,-0.0420438908040523
4.8212294921875,-0.3448823818318545,-0.8216563559178263,-4.73462730646e-05,-0.0915081277489662,0.2031822949647903,-0.0189662836492061
4.841281494140625,-0.4176348622990772,-0.9958462171319872,0.3547673776388168,-0.0576339587569236,0.2171699106693267,0.0038151368498802
4.86133349609375,-0.5605899195550009,-1.2205494371395558,0.8331108660638332,-0.0564487725496292,0.1735835969448089,0.0009215306490659
4.881386474609375,-0.6028919513747095,-1.3762902531452477,1.0767647241264582,-0.0598598085343837,0.0950040817260742,0.0035951156169176
4.901438720703125,-0.6656874302446841,-1.4539634215429424,0.8231833462893963,-0.0134297749027609,0.048650000244379,-0.0120530221611261
4.92149072265625,-0.7907957190342247,-1.545863268213719,0.800296391698718,-0.0353598222136497,0.0650527030229568,-0.0653730109333992
4.941543701171875,-0.7719435729175805,-1.5891916839390992,0.9024901072382926,-0.1210606470704078,0.1273532509803772,-0.1297018826007843
4.961595703125,-0.7555622008286416,-1.54719933912307,0.6354495283693075,-0.1977617144584655,0.1639598608016967,-0.1960695534944534
4.9816474609375,-0.4122755272230133,-1.4076970526695252,-0.0368687181919813,-0.1731600165367126,0.1063781529664993,-0.1803485751152038
5.001700439453125,0.0178255064826458,-1.157747674659267,-0.782394239783287,-0.0900898724794387,0.061125811189413,-0.0884088575839996
5.02175244140625,0.1092771709945052,-1.0083601001378149,-1.0553121862530708,-0.0318040810525417,0.0988520756363868,0.0014311857521533
5.041805419921875,0.0999572617243975,-0.976686612501368,-1.146189558008313,0.0165206175297498,0.2053499668836593,0.0785102322697639
5.061857666015625,0.1821999299947172,-0.8349817745022475,-0.9343535644888876,0.0618778727948665,0.35354745388031,0.1567867249250412
5.08190966796875,0.1247553836986422,-1.0039716559205203,0.0845604436933994,-0.0765672400593757,0.3159752488136291,0.1992794871330261
5.10196240234375,-0.1020003849245607,-1.06174777225852,0.1994406223267316,-0.1975477486848831,0.1167405918240547,0.188023954629898
5.122014404296875,-0.3907986220933496,-0.9183272163826972,-0.9449988771438598,-0.2088394910097122,-0.1375147700309753,0.1482496112585067
5.142066650390625,-0.5279182511940598,-0.6621831484507769,-2.075454859447479,-0.1770379841327667,-0.3256196677684784,0.1001937240362167
5.16211962890625,-0.4670810667850077,-0.2204198435999453,-3.625460780423879,0.0133093632757663,-0.2877658009529114,0.1147390902042388
5.182171630859375,-0.5143108373304829,0.0984106168042868,-3.9600329267740246,0.1323992162942886,0.0451470017433166,0.1001226529479026
5.2022236328125,-0.3952371159974485,0.3243362182136625,-2.789374113419652,0.1738394498825073,0.2945580780506134,0.0939280465245246
5.222276611328125,0.0295146291021257,0.5631546920090913,-1.257672495418787,0.2187508046627044,0.3086893260478973,0.1680408120155334
5.24232861328125,0.2848085099454969,0.7473094823986292,-0.036762919729948,0.3095826208591461,0.1946417540311813,0.2830207049846649
5.26238037109375,0.1165715657863765,0.8764915964983403,0.6960673709392547,0.3643288612365722,0.0268920995295047,0.3311260342597961
5.28243359375,-0.0683770053293555,1.0430457752022892,1.6501111398041248,0.3065429627895355,-0.0201828777790069,0.3688876628875732
5.302485595703125,-0.2301061750296503,1.117568955136463,1.923061234977841,0.2633510828018188,-0.0575883910059928,0.3300003707408905
5.32253759765625,-0.3999987774413078,1.1755757384251802,1.789074204814434,0.2010571658611297,-0.0878239274024963,0.2473935186862945
5.34259033203125,-0.2050529092505574,1.3017466149449348,1.674984299775958,0.1050144806504249,-0.1693971902132034,0.194922387599945
5.362642333984375,-0.1786187105070799,1.5220372792072594,0.8443792790532112,0.0711057782173156,-0.2971918880939483,0.1395475417375564
5.382694580078125,-0.2102376549446955,1.7292239856161176,0.0334334830462932,0.0431217588484287,-0.3721944987773895,0.0712787806987762
5.40274755859375,-0.243839662958309,1.7077343306027353,-0.7984224145203829,0.0060812486335635,-0.2720152139663696,-0.0292505603283643
5.422799560546875,0.0110405590502545,1.7896455749616025,-1.3037708142489195,0.0087763909250497,-0.0057359407655894,-0.0537721328437328
5.4428515625,0.4002051136683672,1.8763254950270056,-0.9493371986091136,0.0451836213469505,0.1651746183633804,-0.0014231447130441
5.462904541015625,0.5891438503988087,1.7082342429488897,0.1105307512521743,0.0573802329599857,0.1275566071271896,0.0456067994236946
5.482956787109375,0.6101012251663953,1.489283741249144,1.3120458906412125,-0.0198433697223663,0.0067659253254532,0.0709574148058891
5.5030087890625,0.5319198880508542,1.3299807757824658,1.7635376124978064,-0.1066212877631187,-0.0768489763140678,0.0863029062747955
5.523061767578125,0.4422172226307913,1.106614211206138,1.5910416957199571,-0.1771086752414703,-0.0978301987051963,0.062578871846199
5.54311376953125,0.4169200650932267,0.8549846250239759,1.4143284535080194,-0.2436957657337188,-0.1037531122565269,0.0390192978084087
5.563165771484375,0.5503127460926771,0.6594533581607044,1.0765566343337296,-0.2784211337566376,-0.1197135522961616,0.0415699370205402
5.583218505859375,0.7051813823737204,0.4685107342619448,0.7769184387207031,-0.2543675005435943,-0.1751359403133392,0.0798920392990112
5.6032705078125,0.686221391968429,0.2537039813034236,0.3701110772430896,-0.1696303337812423,-0.2477788031101226,0.1021607220172882
5.623322509765625,0.4589695834565907,0.0717613140054047,0.3472890045821666,-0.154063269495964,-0.2664991021156311,0.0749617740511894
5.643375732421875,0.2076779422582127,-0.2649734172061085,0.4461947844922542,-0.1925057768821716,-0.2542335987091064,-0.0058707338757812
5.663427734375,0.0490709414327517,-0.3629778643622994,-0.0481213490903377,-0.160500094294548,-0.1515039801597595,-0.0961056351661682
5.683479736328125,0.0230375968414358,-0.5115933585327118,-0.2536813310801982,-0.144790306687355,-0.0785636454820633,-0.2024678140878677
5.70353271484375,0.0832815828640013,-0.6592084434889257,-0.252891057485342,-0.1225320249795913,-0.0985227897763252,-0.2853851616382599
5.723584716796875,0.2666928066109307,-0.6653886664938181,-0.3539765195220709,-0.0595002137124538,-0.0964120924472808,-0.3173746764659881
5.74363671875,0.3329598157826811,-0.6799328862834721,-0.6177040283203125,0.0250624623149633,-0.0846734270453453,-0.3468937873840332
5.763688720703125,0.3688067897114903,-0.7913862322732805,-0.1741454375505447,0.0054151657968759,-0.1077016219496727,-0.3805922567844391
5.78374169921875,0.2699883958239108,-0.8454465429585426,-0.0867635066956281,-0.0234932824969291,-0.1471647024154663,-0.4452211856842041
5.803793701171875,0.3542306404136121,-0.756358758033812,-0.4593769221484661,-0.0057827709242701,-0.1473273485898971,-0.4699448645114898
5.823845703125,0.6613658407185227,-0.6346271791357546,-0.9546031563133,0.0714863017201423,-0.1918547302484512,-0.4320844709873199
5.84389892578125,0.9145419256903232,-0.5324002919789403,-1.2188543967247008,0.1773716211318969,-0.256444901227951,-0.329048216342926
5.863950439453125,0.8463648999124765,-0.5016981335926801,-1.239382220968604,0.265815794467926,-0.2432118356227874,-0.2522717714309692
5.88400244140625,0.6641423927597702,-0.5601006382007152,-0.83278119571805,0.2760968804359436,-0.1775561869144439,-0.2038554847240448
5.9040556640625,0.5160674352068454,-0.6236175632130354,-0.4838678048044443,0.2862235307693481,-0.2305206358432769,-0.1769516468048095
5.924107666015625,0.1466578298971522,-0.6667928342033177,-0.4971645087510347,0.2922128140926361,-0.3388712108135223,-0.2162525355815887
5.94415966796875,-0.2710781455556862,-0.6441998941231518,-0.6199959386497735,0.2278690785169601,-0.4346648454666137,-0.3305006921291351
5.964212890625,-0.5607216927085071,-0.781343780882284,-0.54965457444489,0.0862834975123405,-0.4805168509483337,-0.5141142010688782
5.984264892578125,-0.5431154549997299,-0.7299540776457637,-0.8627829507499932,-0.037512931972742,-0.3737643957138061,-0.7072716951370239
6.004316650390625,0.0995865287158638,-0.4050621252454817,-1.4954776274532078,-0.0766229256987571,-0.1056584119796752,-0.7623934149742126
6.02436865234375,1.183869738713652,-0.1279499419562518,-1.8454378970712424,0.0482423603534698,0.0992586910724639,-0.6165928840637207
6.044421630859375,1.8835282660126684,0.1145076189938932,-1.256374272301793,0.1854766011238098,0.2026885002851486,-0.357071191072464
6.064473876953125,2.072698546476662,0.1788843757059425,-0.0598071107089519,0.2882203757762909,0.1715620905160904,-0.069781519472599
6.08452587890625,1.8996569785147903,0.3077373309165239,0.9300643428623676,0.3771213889122009,0.0882715806365013,0.1826900243759155
6.104578857421875,1.5388731170654295,0.4033750489413738,1.6131068125337362,0.4244532585144043,-0.0154056139290332,0.3700678944587707
6.124630615234375,1.003752460211888,0.4392233380444347,1.8925942005217076,0.4024771749973297,-0.1127027198672294,0.4549504220485687
6.1446826171875,0.5683870397046208,0.4401755242027342,1.96377727624774,0.2901374697685241,-0.1562246531248092,0.4819451868534088
6.164734619140625,0.2018274809306487,0.4501296397231519,1.53568338111341,0.19191874563694,-0.202583760023117,0.4568909406661987
6.18478759765625,0.2722764336958527,0.5581522075466812,0.4428039730101824,0.218950480222702,-0.2367961555719375,0.4903114140033722
6.204839599609375,0.7324809657748789,0.850565858733654,-0.3008107465237379,0.2327293157577514,-0.188445508480072,0.606987476348877
6.224891845703125,0.8228402319401502,0.736667238483578,-0.0956587608128786,0.1295219659805297,-0.1193966642022132,0.6850013136863708
6.24494482421875,0.6009848025791347,0.5881292665287852,-0.2591132930010557,0.1021512076258659,-0.0664527341723442,0.6923384666442871
6.264996826171875,0.6149512955460698,0.6781827546805143,-0.5501292062193155,0.1379353404045105,0.0364485718309879,0.7485570311546326
6.285048828125,0.9539094749607144,0.8333664482600986,-0.3436322356402874,0.1478464603424072,0.2020668387413025,0.8854891061782837
6.305101806640625,1.1431164341732858,0.781115013627708,0.0378051222592592,0.1375067830085754,0.2905545830726623,0.983754575252533
6.32515380859375,1.284771953137964,0.8211243679329753,0.452907433873415,0.1504025608301162,0.2766095101833343,1.1089200973510742
6.345205810546875,1.2606607174493372,0.790104083508253,0.8708604587435722,0.1278256028890609,0.1980779469013214,1.2186644077301023
6.365257568359375,0.902710325860232,0.6889581234559417,1.018406643182039,0.0734743177890777,0.1609043776988983,1.253396987915039
6.385310791015625,0.6032049993792549,0.6413612366311252,0.8744365636646747,-0.0021697897464036,0.2019153833389282,1.2569117546081543
6.40536279296875,0.6137247494257986,0.5915042959198356,0.6872288154453039,-0.0680643171072006,0.2332648634910583,1.2785536050796509
6.425414794921875,0.6998397290848195,0.6160442784145475,0.4524158509641885,-0.1045010536909103,0.2491339296102523,1.3282434940338137
6.445467529296875,0.882928351547569,0.6974965269595385,0.1804535977840423,-0.109636478126049,0.2717988491058349,1.4274163246154783
6.465519775390625,0.9410596379987894,0.7553622943423688,0.0884545285224914,-0.0997130572795867,0.2816598117351532,1.532148361206055
6.4855712890625,0.8859003530956804,0.7277113402202725,0.1094207441836595,-0.0911510661244392,0.3308838605880737,1.6250243186950684
6.505623291015625,0.8807830100819468,0.7086888059727847,0.2023147164583206,-0.0722854509949684,0.3767710030078888,1.722753405570984
6.525676513671875,0.8134129898380488,0.6498322739869355,0.2712438757777214,-0.0396326556801795,0.3830996751785278,1.8090488910675049
6.545728515625,0.842772501443699,0.6601128449827433,0.5034434428900479,-0.0570118278264999,0.3424881994724273,1.8962769508361816
6.565780517578125,0.5959233179384842,0.5215291346788407,0.7327396897763013,-0.0897669941186904,0.2958865165710449,1.9306516647338867
6.585832275390625,0.3858589372014626,0.4277770842701196,0.5013070153832435,-0.0724741443991661,0.2945307195186615,1.913002014160156
6.605885498046875,0.4489280453810468,0.4423955383397638,0.2502700613319873,-0.0709063187241554,0.365768551826477,1.940265655517578
6.625937255859375,0.6710578712366521,0.495201976506412,0.2031903302490711,-0.0626237392425537,0.3596313297748565,2.000128507614136
6.6459892578125,0.7158421848587692,0.4947868198342621,0.065297524818778,-0.0244898721575737,0.3228434324264526,2.0581183433532715
6.666042236328125,0.664475424106419,0.5705401260852814,-0.0440454779535531,0.0111934263259172,0.3420709669589996,2.110333204269409
6.686094482421875,0.4746019638091325,0.5686144187197089,-0.0473363361924886,0.0217647571116685,0.4090497195720672,2.1281983852386475
6.706146484375,0.4435314105018973,0.5244933913119137,0.1192249298393726,0.0010019403416663,0.4812463521957397,2.1190152168273926
6.726198486328125,0.3105087318586185,0.439824372677505,0.2349959198325872,-0.0333928279578685,0.5373895764350891,2.059253931045532
6.746251220703125,0.3204352652523666,0.4421832107633352,0.4405991564422845,-0.1169693693518638,0.5518842935562134,2.010434150695801
6.76630322265625,0.6499404105365276,0.6140764854729175,0.3323503786474466,-0.1739399880170822,0.4020588397979736,2.053143262863159
6.78635546875,0.7800003303840756,0.8206589423783123,-0.2120627880126237,-0.2211582064628601,0.0574965700507164,2.088404655456543
6.806407470703125,0.1362359964002855,0.8626638544149696,-1.6613818908810614,-0.1992626786231994,-0.1904773116111755,1.9744458198547363
6.82646044921875,0.1907894060984253,0.9693057815350592,-2.927223664230108,-0.0392298996448516,-0.1790359616279602,1.9196584224700928
6.84651220703125,0.6037388505276292,1.3969326436795293,-3.24160408642292,0.1016452834010124,0.1364073157310485,1.964120864868164
6.866564453125,0.5585748534055427,1.458195944546163,-2.547981186026335,0.1308729201555252,0.4658271670341491,1.985195279121399
6.886616455078125,0.3663416782395914,1.2293376506857574,-1.6651269226282834,0.17984339594841,0.4548006057739258,1.9130926132202148
6.906669189453125,0.46475361021813,1.1944954698853194,-0.8282786236017942,0.2474339753389358,0.352836012840271,1.8825520277023315
6.92672119140625,0.6048181701969355,1.3418582605808973,-0.2705541399478912,0.3002900183200836,0.3126143515110016,1.8525196313858032
6.9467734375,0.4644282141886651,1.3424135563760995,0.4901917471289634,0.2342188060283661,0.4157810509204864,1.7601429224014282
6.966825439453125,0.5844046199824661,1.3681307659566402,0.9861427884370088,0.1403667628765106,0.5210859775543213,1.6883472204208374
6.98687841796875,0.9803289875917136,1.4369772154286502,1.3084943356394767,0.0735448747873306,0.4801228940486908,1.670498967170715
7.006930419921875,1.3754944265924394,1.4654999839492142,1.3744547082811591,0.0691610351204872,0.3200829029083252,1.7054299116134644
7.026982421875,1.6369728412896394,1.6557210886403917,1.1224895334690808,0.1013908460736274,0.2217364311218261,1.7837247848510742
7.047034423828125,1.6746953998319805,1.7735232922002673,1.0190455256074666,0.0604899600148201,0.247072234749794,1.8457382917404173
7.06708740234375,1.63184307718575,1.824353607988357,1.049731755772233,-0.0548509880900383,0.2983549237251282,1.875338196754456
7.08713916015625,1.5024823916487395,1.814475772574544,0.8338473636448382,-0.1406659483909607,0.3014977574348449,1.859782338142395
7.107191162109375,1.4256564877301454,1.8383510075502096,0.4672784890532493,-0.2396358847618103,0.3156569302082062,1.8186068534851076
7.127243408203125,1.5094557377927005,1.785708673904091,0.0134469260722398,-0.2846888601779938,0.3418480455875397,1.8044276237487795
7.14729638671875,1.8685509155027569,1.907873018196225,-0.6058475863099098,-0.2313378006219864,0.2620502114295959,1.8591171503067017
7.167348388671875,1.850555240084976,1.824335780070722,-0.685393416711688,-0.1924153566360473,0.1890119463205337,1.8854182958602903
7.187400390625,1.77378413509354,1.7058065774105489,-0.777933168721199,-0.1845298111438751,0.1611238867044448,1.894680738449097
7.2074521484375,1.8000122168056665,1.577664620013535,-0.802857182097435,-0.1498858481645584,0.1175911799073219,1.912977695465088
7.22750537109375,1.882525080319494,1.5456274136312305,-0.8665367503255605,-0.0855774879455566,0.0378154926002025,1.962465524673462
7.247557373046875,1.6594477079480885,1.4053826382473111,-0.8204360934078693,-0.0429978445172309,0.0334807336330413,1.9421521425247192
7.267609375,1.220935952239111,1.19019331571199,-0.7985071701943874,-0.0855698809027671,0.1586210280656814,1.8592379093170168
7.2876611328125,1.176530481866747,0.9922788069739936,-0.7631161233395337,-0.0785000920295715,0.229871854186058,1.805124402046204
7.307714599609375,1.1886262855909764,0.986250998051837,-0.8430565060168504,0.004188347607851,0.2512736320495605,1.7898248434066772
7.327766357421875,1.401844527249038,0.9066517569623888,-0.3071598232895136,0.0433006025850772,0.152162566781044,1.817427635192871
7.347818115234375,1.2861533244937655,0.8354396743375807,0.1399818866640329,0.0598140619695186,0.0083027947694063,1.8160005807876587
7.3678701171875,0.8110079014576971,0.6943613707389682,0.1961643771350383,0.0558368749916553,-0.0199486017227172,1.7139054536819458
7.38792333984375,0.5844470708847046,0.5821523110110313,0.0088180972278118,0.0257848743349313,0.0624285228550434,1.6028642654418943
7.407975341796875,0.7516898894399404,0.5392298457380383,0.0072843117892742,-0.0237887278199195,0.1538393795490265,1.5217276811599731
7.42802734375,0.8725604675944894,0.5788353684827685,0.0062654901355504,-0.0220371782779693,0.1324248909950256,1.4933009147644043
7.448079345703125,0.9134088300071656,0.5501058984089643,-0.0315086524635553,0.0103553840890526,0.0118793146684765,1.4816964864730835
7.468132568359375,0.9226179723791778,0.632990444779396,-0.4010796314805745,0.097166359424591,-0.0831581056118011,1.5012452602386477
7.488184814453125,0.7201670623205602,0.6265394420091063,-0.6147101072013378,0.1565618515014648,-0.0864329487085342,1.4738625288009644
7.50823681640625,0.5496770420050248,0.5062814427949488,-0.103595399031043,0.0762945786118507,0.0208021979779005,1.4077835083007812
7.528288818359375,0.2208750948204658,0.345969738677144,0.0291086055845022,0.0066213747486472,0.1230260655283927,1.2826967239379885
7.548340576171875,0.0841013930805958,0.3210651606537401,0.0475514402478933,-0.0651467368006706,0.1667994260787964,1.1491791009902954
7.568393798828125,0.3062936897131614,0.3764319508276879,0.0284177007108926,-0.0956561267375946,0.1810036599636078,1.1128921508789062
7.58844580078125,0.8051265152689069,0.5763711703263222,-0.0635340222775936,-0.0438259094953537,0.1943782418966293,1.1665780544281006
7.608497802734375,0.9929203197479248,0.5175275708872824,0.303024330919981,-0.0208240523934364,0.183055579662323,1.2307766675949097
7.6285498046875,0.8469858813550323,0.3240904267590492,0.9018962329983712,-0.0755528807640075,0.1944429278373718,1.238381266593933
7.648602783203125,0.7264126056466251,0.2506174134649336,0.9630793082356452,-0.1058224663138389,0.1617138385772705,1.2539645433425903
7.66865478515625,0.7402041804380715,0.2554547704935073,0.7425391992568969,-0.0913647785782814,0.0876368954777717,1.3058816194534302
7.688706787109375,0.7777963905990123,0.3205732854835689,0.0224269358634948,0.0367638580501079,-0.0091350376605987,1.4076991081237793
7.7087587890625,0.4962630298666656,0.3679607673414051,-0.4026280299663543,0.1690172404050827,-0.0710891559720039,1.4408187866210938
7.72881201171875,-0.0851762192378751,0.2428829467553645,-0.145718384489417,0.1359789818525314,0.0048820204101502,1.352569818496704
7.748864013671875,-0.3528732344552874,0.1351780665788799,0.1162298396766185,0.0707572326064109,0.1362157762050628,1.2256348133087158
7.768916015625,-0.1492502301436848,0.2913749557889998,-0.1438099205195903,0.074895292520523,0.2589053511619568,1.1729143857955933
7.7889677734375,0.1272024115245789,0.367695248273015,-0.1620709688752889,0.1290930211544037,0.3229314684867859,1.169572114944458
7.809019775390625,0.3009654073624871,0.385404361834377,0.1043511858344078,0.1784309148788452,0.2443284094333648,1.2095158100128174
7.82907275390625,0.3165450528807937,0.3175501382701098,0.5205389545977115,0.1756613701581955,0.1135625019669532,1.2226091623306274
7.849124755859375,0.030207525003422,0.2460381228506565,0.5911906999260187,0.1014309376478195,0.0893428176641464,1.164200782775879
7.8691767578125,-0.3063664992210455,0.1791427343811839,0.2043652192473411,0.0236008018255233,0.1496003866195678,1.059794783592224
7.889228759765625,-0.3344016486214474,0.1429542535383254,-0.2871580687463283,-0.0402911081910133,0.2056108564138412,0.9588397741317748
7.909281005859375,-0.2670597219608724,0.277998099278286,-0.9671107557088136,-0.0436057560145854,0.2630491554737091,0.9241763949394226
7.929333984375,-0.1671831973224878,0.416843236997351,-1.5218664526849983,0.0474545881152153,0.2529538869857788,0.9688970446586608
7.949385986328125,-0.0285109684849157,0.5728117242790758,-1.4843465771079063,0.1809210330247879,0.2605769336223602,1.0678871870040894
7.969437744140625,-0.3067664765903726,0.560812439731881,-0.7127192305326462,0.2453647553920745,0.248990848660469,1.11031973361969
7.989489501953125,-0.8837370375819503,0.3603565759479999,0.3137701813399791,0.181859016418457,0.2945810258388519,1.0494787693023682
8.00954296875,-1.2409870258167386,0.3440852401047944,0.9628899231433868,0.0837545394897461,0.3438954353332519,0.9665880799293518
8.0295947265625,-1.2015567865736785,0.3228527747228741,1.399094059497118,-0.0455434322357177,0.3107970654964447,0.9351025223731996
8.049646728515626,-0.9624627837724984,0.3414135366775095,1.024824693530798,-0.0464489087462425,0.1160811185836792,0.915990114212036
8.06969873046875,-0.8547530812904238,0.5532394471943378,0.2916524575561285,0.0429432578384876,0.0647110790014267,0.9813574552536012
8.0897509765625,-0.876913621302694,0.5655995278779417,0.176903211826086,0.0627657696604728,0.0835468024015426,1.0095199346542358
8.1098037109375,-0.923119930551946,0.3852615923628211,0.5664987417399883,0.0204996727406978,0.0467687807977199,0.985539972782135
8.129855712890626,-1.0764417757824063,0.2259041202299296,0.9008861791729926,-0.051611453294754,0.0272140987217426,0.9235921502113342
8.14990771484375,-0.9962236721422524,0.2292564263325184,0.7575619963437318,-0.0704850926995277,0.0633163377642631,0.8857635855674744
8.1699599609375,-0.8623581494666636,0.1412798905853182,0.6583849982768297,-0.0505574084818363,0.0937700271606445,0.8509730100631714
8.19001171875,-0.6774634274300187,-0.0623957389626652,0.9228846604913472,-0.0465468280017375,0.0605380795896053,0.803867518901825
8.21006494140625,-0.4535443800700828,-0.2547736563615501,1.1191524980008605,-0.0820651873946189,0.0658996328711509,0.7463131546974182
8.23011669921875,-0.3220391933176666,-0.4610967316783964,1.429675075721741,-0.2123646587133407,0.1076127365231514,0.6706775426864624
8.250168701171875,-0.1910280006272718,-0.5642783622767776,1.0679565637707709,-0.2280918508768081,0.0969748497009277,0.6139990091323853
8.270220947265624,-0.0310449850411387,-0.6419052073147148,0.6317565190702676,-0.1690620332956314,0.0709232613444328,0.5957387089729309
8.29027294921875,0.2265492497330531,-0.767203319587931,0.6456061807245016,-0.1620082259178161,0.0762643218040466,0.5811449885368347
8.31032568359375,0.0668232000160962,-0.8483538087073713,0.6042500879853964,-0.1894940137863159,0.2085146605968475,0.537833034992218
8.330377685546875,0.0828231350393965,-0.9120089000813664,0.629487989616394,-0.231019839644432,0.3167316019535064,0.4987305998802185
8.350429931640624,0.165284049170278,-0.9635871116273104,0.6571878974467515,-0.2643683552742004,0.2906832098960876,0.4881025552749634
8.37048193359375,0.1394412404486909,-0.9623294397164136,0.3324403950184583,-0.271220862865448,0.2601120173931122,0.4908349215984344
8.390533935546875,0.1358073774583637,-0.857981468752399,-0.1167664307713508,-0.2508936822414398,0.2442035526037216,0.528066098690033
8.4105869140625,0.1821973361788317,-0.8173586587239057,-0.3884270706564188,-0.2065959125757217,0.2363816946744918,0.5634027123451233
8.43063916015625,0.067556811520271,-0.8003822433512657,-0.3632978900969028,-0.2417549937963485,0.304874062538147,0.5609837770462036
8.45069091796875,0.0258427721889689,-0.7447761645287275,-0.2641875275254249,-0.3453923165798187,0.3103023469448089,0.5845518112182617
8.470742919921875,-0.0199825749186798,-0.5110276509413495,-0.8659224178195,-0.3238354027271271,0.2034276574850082,0.6101898550987244
8.49079443359375,-0.2997817322695628,-0.3968792937139049,-1.439534790956974,-0.2994581758975982,0.171033963561058,0.5781078338623047
8.510847412109374,-0.384148735750094,-0.3779747598228976,-1.5657926881730555,-0.3392727673053741,0.2490371763706207,0.5430650115013123
8.5308994140625,-0.2172813994437456,-0.2132374943478032,-1.949331986787915,-0.2601931989192962,0.2936621904373169,0.5516512989997864
8.550951416015625,0.1464978444293141,-0.1396001573374495,-1.820311054599285,-0.1651224941015243,0.2165822088718414,0.6186321377754211
8.57100341796875,0.1550388782814145,-0.1906055008988827,-1.419265909910202,-0.1357226371765136,0.0755609944462776,0.6503339409828186
8.59105517578125,-0.1526833281312137,-0.2333330829205922,-1.3704051406294109,-0.1186179295182228,-0.0562627464532852,0.6276944279670715
8.611107421875,-0.4104872190341353,-0.147522273839917,-1.8879542657613757,-0.0406005904078483,-0.0735765695571899,0.5519394874572754
8.631160400390625,-0.4255640843957662,0.0067949573697522,-1.829224428895116,-0.0072475741617381,0.1906440705060959,0.4920823872089386
8.65121240234375,-0.1090837673142552,0.1413369362684898,-1.299770930957794,0.0262847021222114,0.4341183304786682,0.5018640756607056
8.671264404296876,0.4855207596432417,0.2893605654929764,-0.4725736728519201,0.1323143392801284,0.4364965856075287,0.6241171360015869
8.69131640625,0.6572038987334817,0.415706122726202,0.2528273445993662,0.2696836292743683,0.2431219220161438,0.7438123226165771
8.711368408203125,0.4957536190398037,0.5439059477902949,0.7382417943239211,0.3466647863388061,0.0379822626709938,0.8288328647613525
8.73142138671875,0.2694878258906305,0.5324610822554677,1.1694289792984722,0.3273147940635681,-0.0989534854888916,0.8681938648223877
8.751473388671876,-0.1436027075096964,0.5847644297381863,1.1245002887696027,0.3031393885612488,-0.1820954382419586,0.8015518188476562
8.771525390625,-0.5049097160503268,0.5907135108683258,1.0511673415333032,0.2628605663776397,-0.2875025272369385,0.6703912019729614
8.79157763671875,-0.4834793169435113,0.7180936170473694,0.6269476574838161,0.2033682316541671,-0.3682498931884765,0.5653262138366699
8.81162939453125,-0.2581306021066382,0.8908117252085357,0.3986830917328596,0.1081414446234703,-0.3543274402618408,0.5456445813179016
8.831681396484376,-0.1902215796152129,0.9006723902918398,-0.4555605787307024,0.1387077122926712,-0.3646422624588012,0.4329091608524322
8.851734130859375,-0.1789972249632701,0.9188794434379786,-0.6292483356416225,0.1312664151191711,-0.1958575844764709,0.4057826101779938
8.871786376953125,-0.1005020361255854,0.9957146266415716,-0.5758849942445755,0.1770889014005661,0.0512036345899105,0.4187102913856506
8.89183837890625,-0.08120236543715,1.058982106937468,-0.391477690398693,0.2456092238426208,0.1235704123973846,0.401023268699646
8.911890380859376,-0.1876443130057305,0.8263365496233105,0.5644903245270252,0.1516705602407455,0.0502429865300655,0.266361266374588
8.9319423828125,-0.2019307951746508,0.6466874000899493,1.107463229250908,-0.0002455497160553,-0.0027241394855082,0.1278942823410034
8.95199560546875,-0.1075218517597764,0.6293963658101857,1.053010339051485,-0.0770036950707435,-0.0722243264317512,-0.0069005619734525
8.972047607421874,0.1639361782252788,0.7208399200808256,0.963240051755309,-0.1038985699415206,-0.1577741354703903,-0.046458464115858
8.992099609375,0.4482036766292527,0.7335569244433194,0.7467582782566548,-0.1254338175058365,-0.1671926528215408,0.0408887974917888
9.0121513671875,0.6066816259812563,0.6252214182130992,0.5115092604458332,-0.0693783313035965,-0.188473954796791,0.1497013717889785
9.032203369140625,0.3621303076222539,0.507753415043652,0.3763625388532877,0.0747293010354042,-0.3112454116344452,0.1683933585882187
9.05225537109375,0.245837978902366,0.3482285504546016,0.2980518032044172,0.1636820286512375,-0.3191440105438232,0.0940262004733085
9.072308349609376,0.0655782962552271,0.1673036088317632,0.6976905882269143,0.0440578162670135,-0.2585278451442718,0.0615295954048633
9.0923603515625,0.1185095481116324,0.0478800146151334,0.6120569623440504,-0.0034007942304015,-0.2365310043096542,0.0583977252244949
9.112412353515625,-0.0547198705725371,-0.041297129093483,0.2351490645676851,0.0277340207248926,-0.1781193614006042,0.0978305414319038
9.13246435546875,-0.2054112577015533,-0.1873118661809712,-0.0318330621123313,0.0585794448852539,-0.2102287411689758,0.0223185680806636
9.1525166015625,-0.1132809998083859,-0.3013520868588238,-0.207532158845663,0.0921826288104057,-0.2517851591110229,-0.0827774181962013
9.172568603515623,0.0645384866124019,-0.2833919211458414,-0.120078331798315,0.0552666895091533,-0.1432216614484787,-0.0899455845355987
9.19262158203125,0.1686728878909721,-0.2451419777285307,0.0440963313579559,0.025613959878683,-0.0174289718270301,-0.0384994223713874
9.212673583984374,0.2799405020503327,-0.3805042417678981,-0.055163084295392,0.065292090177536,-0.0705596953630447,-0.0358335338532924
9.23272509765625,0.3019731048339977,-0.3301601020615547,-0.0194563956201076,0.1469791531562805,-0.1512665599584579,-0.0314675122499465
9.25277734375,0.0906470335980877,-0.3958241951704025,0.1909498573571443,0.1151059120893478,-0.2020301520824432,-0.0895629897713661
9.272829345703125,-0.0866014114690944,-0.4566441361837088,0.2975210573285818,-0.0168508477509021,-0.1709959954023361,-0.1439862102270126
9.29288134765625,0.0927086423030123,-0.2524763392046094,-0.3705874625831842,-0.0266243033111095,-0.1010616049170494,-0.082120805978775
9.312934326171876,0.1702542753309011,-0.3138528911873698,-0.2757517085909843,-0.066481165587902,-0.1720875799655914,-0.0294690430164337
9.332986572265623,-0.1716695854889229,-0.3891984934203326,-0.6859650791198015,0.0094732604920864,-0.2439079135656356,-0.103112906217575
9.35303857421875,-0.3322521789699793,-0.3209073397435247,-0.9900479791820048,0.2178750783205032,-0.2567677497863769,-0.1936999261379242
9.373090576171874,-0.0552935788072645,-0.4647293890923261,-0.5140162748306989,0.1912960708141327,-0.3581225872039795,-0.2461872547864914
9.393142578125,-0.6051615402745083,-0.4822248599030077,-0.2003162361174821,0.0996507555246353,-0.3192742764949798,-0.3558332324028015
9.4131943359375,-0.7837205930162221,-0.5314884378310293,-0.3324193522304296,-0.1065106987953186,-0.429548978805542,-0.4971354305744171
9.43324658203125,-0.914255948355794,-0.5446363809566944,-0.9804179810494184,-0.2032559812068939,-0.5450344681739807,-0.7059216499328613
9.45329931640625,-0.6728608290053903,-0.4478822261225432,-1.2811159148484468,-0.2014225870370865,-0.4973931312561035,-0.8582584857940674
