timestamp,acc_x,acc_y,acc_z,gyro_x,gyro_y,gyro_z
0.117510986328125,0.2496524043576792,0.3940251829244196,-0.8982657675415276,0.0623390600085258,0.174983263015747,0.3082112073898315
0.13756298828125,0.6666669428013264,0.5859747919086367,0.3578413782566785,-0.0398805625736713,0.2877635955810547,0.3895145654678345
0.15761474609375,0.6560039483591914,0.6329274625457822,0.4139145631343126,0.0278574042022228,0.3015000224113464,0.4542886316776275
0.177667724609375,0.5137612771563231,0.7190879618469626,0.823086900177598,0.1054099798202514,0.2856384813785553,0.4910740852355957
0.1977197265625,0.647935281259194,0.7770991290498525,0.8890636394321918,0.1755207926034927,0.1851854026317596,0.5094811320304871
0.21777294921875,0.8367775718778371,0.9194970638796688,1.1165209804534912,0.2062502354383468,-0.0012663463130593,0.5307011604309082
0.237824951171875,0.9398517965789884,0.919681918927282,1.3696037611186505,0.0596949867904186,-0.2162166833877563,0.5487498044967651
0.257876953125,0.6299341990139335,1.0726546584591268,0.5059978035479784,0.0144926933571696,-0.3192862570285797,0.5225679874420166
0.2779296875,0.3501590435931458,1.2011965749591589,-0.0903974792838096,-0.0155405085533857,-0.269083023071289,0.459614485502243
0.29798193359375,0.2626723737221211,1.1975155483588575,-0.3507937978327274,-0.052022099494934,-0.1320123970508575,0.3951351046562195
0.318034912109375,0.5279764476547018,1.3005882386900485,-0.6920002676308155,0.0187557768076658,-0.0061751808971166,0.4084816873073578
0.3380869140625,0.7854355071753263,1.3542175375469028,-0.3099468236595392,0.0693132430315017,0.1138157472014427,0.4926356673240661
0.358138916015625,0.7915709411904215,1.2033888243064284,0.1936883424103259,0.0692992582917213,0.1414166092872619,0.5415216684341431
0.37819189453125,0.8116722105853259,1.0141829610724002,0.4796744447678327,0.0956206023693084,0.0402603559195995,0.5160370469093323
0.398243896484375,0.9219004717595874,0.9182976249620318,0.8500240069419145,0.044520229101181,0.0048203947953879,0.547756552696228
0.418296875,0.920798209606111,0.8469657884150743,0.7457780350476503,0.004714319948107,0.0300813876092433,0.6158939003944397
0.43834912109375,0.7462844501998275,0.6125833243057132,0.587745527908206,0.0175900347530841,-0.0135599691420793,0.5955280661582947
0.4584013671875,0.8043090614061802,0.3882657426148653,0.5619938315361738,0.0144282784312963,-0.0820051580667495,0.5587736368179321
0.478454345703125,0.8489568161018193,0.3372566361937671,0.4454366596013307,0.0152766220271587,-0.0565059967339038,0.5716657638549805
0.49850634765625,0.747283105848357,0.1754788781113922,0.2031149269253015,0.035763818770647,-0.0504657961428165,0.5848321914672852
0.518559326171875,0.5062711771292612,-0.0008852584019303,0.1377870069682598,0.0718317776918411,-0.0456323102116584,0.5741936564445496
0.538611083984375,0.1413333469387609,-0.1533017522905022,0.23381577013731,0.0869487896561622,-0.0099383750930428,0.5057862401008606
0.558663330078125,0.1988754261920228,-0.2365221064865589,0.0765741211146116,0.1075795963406562,-0.0491380617022514,0.3991415202617645
0.578716064453125,0.2619808112613856,-0.2135526612441986,0.0800327371358871,0.1107401400804519,-0.1167841330170631,0.3420572578907013
0.59876806640625,0.1462602910800836,-0.1646195573795586,-0.0298375043809413,0.1109663993120193,-0.0832950696349144,0.2968699038028717
0.6188212890625,0.2075004485331475,-0.1984367059811949,0.0238882405877113,0.1175582706928253,0.002533892635256,0.2846094965934753
0.638873291015625,0.3419246280048042,-0.2172172481663525,-0.0025303952604532,0.2046559602022171,0.011251788586378,0.2550642788410187
0.65892626953125,0.5716570743512361,-0.2389431961536407,0.1466717396914958,0.2642696499824524,-0.1083714663982391,0.2435441017150879
0.678978271484375,0.6255819220885634,-0.2287739765778183,0.5964730242431163,0.192533254623413,-0.1665578782558441,0.2528770267963409
0.6990302734375,0.6212897047873586,-0.2166253466878086,0.4768932896167039,0.1156176105141639,-0.2575425803661346,0.2787744700908661
0.719083251953125,0.480628676752746,-0.1918595926132053,-0.2457102060705423,0.169025108218193,-0.2893620133399963,0.2559744417667389
0.73913525390625,0.2028385942019522,-0.1222241847205907,-0.4925538000851869,0.209242358803749,-0.175280287861824,0.2129001468420028
0.759188232421875,0.2702285247227177,-0.2057357769481837,-0.1499433087080717,0.1110379621386528,-0.0719967260956764,0.217520534992218
0.779240478515625,0.3419683210160583,-0.1906735976990312,-0.2584995450168847,0.0467249415814876,-0.07271608710289,0.2428595423698425
0.799293212890625,0.263923798555322,-0.1424698310222476,-0.843005068090558,0.080854631960392,-0.2369667738676071,0.2104430496692657
0.81934521484375,-0.1241166474036872,-0.22270956197232,-0.9442214630305766,0.0381941124796867,-0.2791520357131958,0.116182193160057
0.8393984375,-0.2215706941355019,-0.2143956148743629,-0.8958172053456306,-0.0487323887646198,-0.1812855750322342,-0.0016971584409475
0.859450439453125,-0.0328714652493596,-0.1858181935571134,-0.8995458704799413,-0.0860700756311416,-0.1300969272851944,-0.1293345987796783
0.87950341796875,0.3314883549906313,-0.0400790585406124,-0.7474106046855449,-0.0703540071845054,-0.0498302057385444,-0.1706297695636749
0.899555419921875,0.681334350579232,0.0074905749510973,-0.8904103778660297,0.0182016547769308,0.0336062088608741,-0.1822991967201233
0.91960693359375,0.9979075335759668,-0.0408054731190204,-0.3598609013855457,0.0534805357456207,0.1595757752656936,-0.1000288128852844
0.939660400390625,1.0085511657305062,0.0946144393917173,-0.0358978273332118,0.1456145197153091,0.2875817120075226,0.009689649567008
0.959712158203125,0.7309047294341028,0.2990785889688879,0.4140226996839046,0.3049995005130768,0.4091143608093261,0.1194514036178588
0.97976513671875,1.0319489924527705,0.1476814281906932,0.9604431145131588,0.3296346664428711,0.2636117041110992,0.2500891983509063
0.9998173828125,0.6605278555244207,0.0402037808988243,1.64141053147614,0.2416983097791671,0.0465617515146732,0.298913300037384
1.0198701171875,0.3158851276673376,0.057867740144208,1.502422916546464,0.1757965683937072,-0.125061348080635,0.2514283061027527
1.039922119140625,0.1861894014896825,0.2773287486493587,0.9746510880857704,0.1193428635597229,-0.0921521261334419,0.1898384392261505
1.059975341796875,0.434131604395993,0.5243769253253936,0.5222732310444116,0.0318805612623691,0.0599957481026649,0.213662102818489
1.08002734375,0.7875869861207901,0.6465953378923237,0.0193967743873596,0.0223212838172912,0.0480117835104465,0.2671904265880584
1.100080078125,0.939966728195548,0.7975089529372751,-0.3371931425034999,0.0404289029538631,0.0773987174034118,0.3555935621261596
1.120132080078125,1.1928943913642316,0.799306211617589,-0.3085825495690107,0.0347017422318458,0.109639748930931,0.5075511336326599
1.140185302734375,1.1144773457966743,0.6782036513380706,-0.3957289181023836,0.1064518317580223,0.0867398604750633,0.6611628532409668
1.1602373046875,0.9058490622773766,0.5182030589960516,-0.1554763929158449,0.174913004040718,0.094806782901287,0.7733960747718811
1.180290283203125,0.6976553707830607,0.384255484060198,0.2253302658647298,0.2030075192451477,0.1504668146371841,0.8220314979553223
1.20034228515625,0.4293058647399768,0.312479849268496,0.7457178292930126,0.1728274822235107,0.2052550613880157,0.8182551264762878
1.220395263671875,0.4259037646789103,0.2280139519907534,0.9239777164250612,0.1000070422887802,0.2338621616363525,0.8252219557762146
1.240447265625,0.4424789057742804,0.132908733407408,0.9292062647283076,0.0267052557319402,0.1701059937477111,0.8576753735542297
1.260500244140625,0.2579941527780145,0.0107009883649647,0.694716540852189,-0.0307331755757331,0.0713174790143966,0.845267117023468
1.280552490234375,0.3237410287994891,0.1153482345364987,0.3479319786608219,-0.0790199190378189,0.0544753260910511,0.8456476330757141
1.300605224609375,0.3527633443400264,0.2197530502542853,0.1026817913174629,-0.1213341802358627,0.1125701069831848,0.8689092993736267
1.3206572265625,0.5203966600501909,0.2529401573240757,-0.1430506265848874,-0.1218965202569961,0.1452657878398895,0.9170016050338744
1.340710205078125,0.4880667908642441,0.1615733946166932,-0.3235264362007379,-0.0898824110627174,0.1370303779840469,0.949294090270996
1.360762451171875,0.397092826866731,0.1677539829477667,-0.1611620373368263,-0.0707927197217941,0.1905245780944824,0.989104986190796
1.3808154296875,0.5902865176279097,0.170828860348463,0.0968318962454795,-0.0602555088698864,0.2555801272392273,1.0715395212173462
1.400867431640625,0.4763294086562469,0.0963990577861666,0.3183504948675632,-0.0198871232569217,0.2465247809886932,1.1187281608581543
1.42092041015625,0.3998186716340482,-0.0445599302817136,0.8857441396206617,-0.072146289050579,0.2051143497228622,1.146689772605896
1.44097216796875,0.2059479949267581,-0.1599140831023454,0.7608955246806144,-0.1141311302781105,0.2123115062713623,1.1259474754333496
1.4610234375,0.3143743577782064,-0.0838382668986916,0.3002221329808235,-0.0767051503062248,0.3059612810611725,1.1176269054412842
1.48107568359375,0.3939919747745618,-0.2223423360951244,0.8222036876022816,-0.1471242010593414,0.3249832093715668,1.127394676208496
1.501128662109375,0.49297005273588,-0.2644352186761796,0.7960749746114015,-0.1830814778804779,0.2588875889778137,1.157542705535889
1.5211806640625,0.3132560578053817,-0.2651310919858515,0.2237877125978469,-0.1134722009301185,0.2382415384054184,1.1701637506484983
1.541233642578125,0.473360366250202,-0.3069043872237205,0.2387240004450082,-0.0923628136515617,0.2701312601566314,1.2122012376785278
1.56128564453125,0.4897155079193413,-0.2923072682030498,0.2290577619552612,-0.0865419432520866,0.259807139635086,1.261939287185669
1.581338623046875,0.2733150560285896,-0.3066515084411949,0.0795943457186222,-0.0763375982642173,0.2558633983135223,1.2943787574768066
1.601390625,0.2315104523370042,-0.3443263553842902,-0.0733089818388223,-0.0845995247364044,0.2554893493652344,1.3433263301849363
1.62144384765625,-0.0079922043303027,-0.2978350917138159,-0.353627559953928,-0.0573680773377418,0.3187954723834991,1.351304054260254
1.641495849609375,-0.244204258487001,-0.4041008789978921,-0.4404015880435705,-0.0017975554801523,0.3504277765750885,1.2954187393188477
1.661548583984375,-0.4849981240086257,-0.523169595362246,0.114043143287301,-0.1503773033618927,0.405754804611206,1.1945829391479492
1.6816005859375,-0.4236157268069684,-0.4206494243472814,-0.1098603046447038,-0.3396273851394653,0.4636472761631012,1.1043585538864136
1.70165380859375,0.0037014666001312,-0.1626763874225318,-1.1048527544915676,-0.316838651895523,0.4232196509838104,1.0863486528396606
1.721705810546875,0.3819222918722778,0.0398894542526453,-1.467902807307243,-0.2465299069881439,0.3295840620994568,1.1476924419403076
1.741758544921875,0.2396810819741338,0.0163533150382339,-1.6860756026327608,-0.1980784237384796,0.2188749015331268,1.15428364276886
1.761810791015625,0.1591231884529814,0.1185245264850556,-1.8153923028975725,-0.119166724383831,0.2210383117198944,1.125310301780701
1.78186376953125,0.0900040229868143,0.2234502973370254,-1.633407842284441,0.0013207092415541,0.2606975734233856,1.0940278768539429
1.80191552734375,0.1491268046934157,0.4396494545020162,-0.7993874601602554,0.1174963116645813,0.2895554602146148,1.1258541345596311
1.821968994140625,-0.0626443799614906,0.4449994372278452,0.0276163212001323,0.1716103851795196,0.1921431124210357,1.069463849067688
1.842020751953125,0.0203761773461475,0.3741904555112123,0.6070026015639305,0.0941874384880065,0.0681860893964767,0.9635040163993835
1.862073486328125,0.2925203994970768,0.6252710295084863,0.6038520285785198,0.0721775591373443,0.0723081603646278,0.9328458905220032
1.88212548828125,0.6300310104519128,0.8702814167466014,0.794777920538187,0.0829817801713943,0.1767417341470718,0.99213045835495
1.9021787109375,0.759299414595589,0.8861440987236797,1.384373460227251,0.0381949916481971,0.2659672498703003,1.070540428161621
1.9222314453125,0.7264945117764174,0.7729974658846854,1.501760653245449,0.0131804216653108,0.1917931139469146,1.0743794441223145
1.942283447265625,0.7700752948276698,0.6880807560995221,1.4729524919122456,-0.0467544272541999,0.0620099864900112,1.0543879270553589
1.962336669921875,0.8158318144828081,0.6244420313384383,1.2731073804378508,-0.1269472688436508,-0.0556932128965854,1.0234428644180298
1.982388671875,0.8743928706534206,0.5591339851256459,0.5432914691537618,-0.1755188256502151,-0.1264297515153885,0.9514725804328918
2.002441650390625,0.958153396140784,0.5853740495365113,0.0169499657571315,-0.2260220944881439,-0.1414291858673095,0.9352580904960632
2.02249365234375,0.9056976711079476,0.5166142554346471,-0.7258797408789396,-0.2138886451721191,-0.1719748526811599,0.933817744255066
2.042546630859375,0.6586005407236516,0.3555162963099778,-1.352155198189616,-0.1359567791223526,-0.1510030031204223,0.8895636796951294
2.0625986328125,0.566012382995151,0.2755046019621193,-1.3799194034278393,-0.0649403855204582,-0.0208555106073617,0.8340684175491333
2.082651611328125,0.6098194856155663,0.2851750051703304,-0.8053893309235572,-0.0329593755304813,0.1801905333995819,0.8240260481834412
2.10270361328125,0.6091721641553566,0.0516068531185388,-0.05065349791646,-0.0214629508554935,0.2263367027044296,0.8034250140190125
2.122756591796875,0.6180654820438474,-0.0008109510567039,0.4794336217492818,-0.0287492685019969,0.2476435750722885,0.7802155017852783
2.1428095703125,0.873520690928772,-0.0873846342686563,0.9455939204275609,-0.0716299787163734,0.2029565423727035,0.7917505502700806
2.162861572265625,0.8665693374209106,-0.1584199720870703,1.1279869618415832,-0.1238678693771362,0.0972798690199852,0.7879451513290405
2.182914794921875,0.8805369263663887,-0.2568133454956114,1.1462608696788548,-0.1929433643817901,0.0094504635781049,0.7837418913841248
2.202966796875,0.8020598211746662,-0.3455220679748803,0.6234843652874231,-0.1687430590391159,-0.0847493484616279,0.7661153674125671
2.22301953125,0.8235552483417093,-0.3234291133061051,0.3378279332756996,-0.147909015417099,-0.1063980236649513,0.7632222175598145
2.24307177734375,0.7342721600405872,-0.4040341704372316,0.2708376330643892,-0.1601108312606811,-0.0756809934973716,0.7520662546157837
2.263124755859375,0.5771101155927404,-0.4523508229039609,-0.0703320118546485,-0.116665318608284,-0.0750409960746765,0.7192332148551941
2.2831767578125,0.4833849897235631,-0.5675993233930319,0.0814320825397968,-0.0937978699803352,-0.107846200466156,0.6733349561691284
2.3032294921875,0.3279275207038968,-0.5297735967371613,-0.0167705175369977,-0.0665304958820343,-0.0656486004590988,0.608453094959259
2.32328173828125,0.2709004691675305,-0.5499425245407968,0.1539618966996669,-0.0708154141902923,0.0143316537141799,0.5405389666557312
2.343334716796875,0.141681493656151,-0.561931506889686,0.0250724819362163,-0.0256041828542947,0.0529651008546352,0.4490347504615783
2.3633876953125,0.2310262672829441,-0.5412416239518671,0.2149626011073589,-0.0091955251991748,0.0478202924132347,0.3720623254776001
2.38343994140625,0.1999109067196026,-0.5126589419376105,0.3764683373153209,-0.0284320544451475,0.0256176069378852,0.3137031495571136
2.40349267578125,0.1644437624212354,-0.4135837968099862,0.0382265625417232,0.0469096824526786,-0.0394195131957531,0.2653778493404388
2.423544677734375,0.0937296193812042,-0.3811665781341493,0.2163794821679592,0.0853119939565658,-0.1402706801891327,0.2055573314428329
2.443597900390625,-0.0878387164453975,-0.369897726753354,0.3735737849175929,0.0499186627566814,-0.2122140973806381,0.1004087477922439
2.463650634765625,-0.3299419657988474,-0.3463658983878791,-0.0381663567870855,0.0188568327575922,-0.1712915450334549,-0.0779481753706932
2.48370361328125,-0.2281051374055445,-0.3148719320368021,0.0178746793866157,-0.0552861653268337,-0.0381117276847362,-0.24986232817173
2.503755615234375,-0.166116189145483,-0.2543358859987929,-0.1130213990241289,-0.0875343531370163,0.0881124213337898,-0.4098893105983734
2.52380859375,-0.2041592666127719,-0.1995676827725022,0.1878530603855848,-0.1903135776519775,0.1350427120923996,-0.5624537467956543
2.543861572265625,-0.2453467795856297,-0.2258434030186384,-0.1395347274184226,-0.2978182435035705,0.0584486126899719,-0.734792947769165
2.56391357421875,0.1760481293667107,-0.0170345753006637,-0.7919634476393461,-0.3257234692573547,-0.0484628602862358,-0.8039205074310303
2.583966552734375,0.7344209208615123,0.1832234278235584,-1.2519663927316664,-0.2950707077980041,-0.1362612098455429,-0.7319755554199219
2.604018310546875,0.8938750583019107,0.1147091329153627,-1.6477788974642753,-0.2535047829151153,-0.1096580252051353,-0.6816046237945557
2.62407177734375,1.2082761579565704,0.1006722050607204,-1.9455396087676289,-0.179983451962471,0.0887056663632392,-0.5631546378135681
2.64412353515625,1.4147387878745794,0.2182982666024006,-2.0564099672377107,0.0564860813319683,0.2572657465934753,-0.3482500612735748
2.66417626953125,1.1072990516651422,0.1197915507461875,-1.0277022947937249,0.280352234840393,0.2923492193222046,-0.1652879863977432
2.684229736328125,0.4812551746206358,0.0630836846942082,0.4661632212877273,0.3377145826816559,0.2984784841537475,-0.0517614223062992
2.704281494140625,-0.1451552341813221,0.1069143508533015,1.2583522943764924,0.3494853675365448,0.2171414047479629,-0.033701617270708
2.72433447265625,-0.5941614593651146,0.0921226225759834,1.765651243650913,0.2602699995040893,0.1086130812764167,-0.0944890677928924
2.744386474609375,-0.9050344579588622,0.1493047185435891,1.5721727445989846,0.1278116554021835,0.0872091874480247,-0.2218122482299804
2.764439453125,-0.8179473453320563,0.2938755769656971,1.0668699375778437,0.0133588965982198,0.1031324863433837,-0.3537692427635193
2.784491455078125,-0.3705060679100453,0.4909266007421538,0.6023159050524235,-0.1014395579695701,0.1740451753139495,-0.4006760716438293
2.80454443359375,0.173226423009485,0.5454758274555206,-0.1415244399309158,-0.151914969086647,0.217959463596344,-0.3400694727897644
2.824597412109375,0.6961725848793983,0.5928284571956843,-0.9864403100788592,-0.0523038581013679,0.1777282804250717,-0.1348439753055572
2.8446494140625,0.7467659501064569,0.5738024158168584,-1.1179133115947246,0.1144652068614959,0.1606415063142776,0.1093033775687217
2.864702392578125,0.292106996390596,0.3167726510915905,-0.3437479709744453,0.1873850375413894,0.210975632071495,0.2396836727857589
2.884754638671875,-0.1521080855265259,0.0454147935453802,0.6916425402343273,0.1410531848669052,0.2342830896377563,0.2967762947082519
2.9048076171875,-0.4509869141396135,-0.0654688993303105,1.1257347990006208,0.1101006343960762,0.1880746334791183,0.2949810326099396
2.924859375,-0.5618742968097329,-0.0657509676747024,1.3693892415851354,0.0452902428805828,0.1349693685770034,0.2970771491527557
2.94491259765625,-0.6035580871332437,-0.0880729087937623,1.1950655248582362,-0.0050034755840897,0.0688769370317459,0.2944333851337433
2.964964599609375,-0.6972182945400476,-0.111068876716867,0.873341169643402,-0.0105216391384601,0.0306519344449043,0.276723176240921
2.985017578125,-0.7553866981312632,-0.1724921173855662,0.7114888119548559,-0.0323009677231311,0.0726290792226791,0.2412855625152588
3.0050703125,-0.6302208339355886,-0.3216846077263355,0.7066378647923469,-0.0836469158530235,0.0769533291459083,0.2269337326288223
3.02512255859375,-0.5175378730855882,-0.4286244583470747,0.4771159924566745,-0.0909397304058075,0.0581221729516983,0.2184241414070129
3.045175537109375,-0.4260193538825959,-0.5844022088296711,0.2812643345326185,-0.0685310661792755,0.0706582367420196,0.2274325340986251
3.0652275390625,-0.2142528454028069,-0.7173577770534902,0.3838333131253719,-0.0559334158897399,0.0735574662685394,0.2746100723743438
3.08528076171875,-0.1194408376123756,-0.8439894029527902,0.306440861365199,0.0023691284004598,0.049245461821556,0.3342636823654175
3.10533251953125,-0.2563661862500012,-1.0186888941895216,0.3510065638005733,0.0498257018625736,0.0880882740020752,0.3536863029003143
3.125385498046875,-0.2219766445878893,-1.2024366381481288,0.6154103644251823,0.0637423321604728,0.1025743559002876,0.3788387477397918
3.145438720703125,-0.3871801393352448,-1.3125915418252347,0.4817091654658317,0.1161356791853904,0.0690907090902328,0.3618995547294616
3.16549072265625,-0.4581494261801243,-1.325654583146423,0.6114946522861718,0.0816152170300483,0.0904080793261528,0.3213402032852173
3.18554345703125,-0.523089515863359,-1.2174440915353597,0.3413099301725625,0.0492153391242027,0.0965377166867256,0.2798474729061126
3.205595458984375,-0.4783788519993424,-1.16287583132796,-0.0803705907881259,0.0702070742845535,-0.0171295776963233,0.2264514416456222
3.225648681640625,-0.3738946143697947,-1.0887407008633017,-0.2047545108258724,0.0419210344552993,-0.1016665995121002,0.1817032396793365
3.24570068359375,-0.0473676081135869,-0.8888603719450533,-0.860938784188032,0.0977044999599456,-0.1288952976465225,0.2028225362300872
3.265753662109375,0.2339895923342555,-0.7205578152038157,-1.0000859735935923,0.1869819313287735,-0.0820825695991516,0.268292099237442
3.2858056640625,0.0207512577362358,-0.7584737774264066,-0.0994739351868629,0.041950736194849,0.0200931057333946,0.2603651583194732
3.305858642578125,-0.4687011422675102,-0.6703373018771409,-0.1949783822208642,-0.1701310127973556,0.1926480233669281,0.1338794827461242
3.32591162109375,-0.4317139853276312,-0.4739825167365372,-0.9132944098472596,-0.2646867930889129,0.2572568356990814,-0.00789575278759
3.345963623046875,0.1096280302587896,-0.1694525304939597,-1.342791157516837,-0.2895983457565307,0.1973094046115875,-0.0056932517327368
3.3660166015625,0.4465764042209834,0.149959017733857,-1.9587264225989576,-0.2479957491159439,0.0977991074323654,0.0824730470776557
3.386068359375,0.526585029828921,0.4342542078623548,-2.5618144810676573,-0.1362880617380142,-0.009463838301599,0.204170674085617
3.40612158203125,0.2596579212717712,0.7059107195615768,-2.492196170440316,-0.0234632045030593,0.0162905156612396,0.2675935328006744
3.42617333984375,0.0421481929648667,0.7994875595338642,-1.7588444862455128,0.0039729001000523,0.1997205317020416,0.2689089179039001
3.446226806640625,0.2833137413430959,0.908068345762044,-0.9378139340758324,0.0367960035800933,0.3440268635749817,0.325710266828537
3.466278564453125,0.5649750393040478,0.9738850721493364,-0.1277636256039142,0.149363487958908,0.2959719002246856,0.4512583911418915
3.486331298828125,0.6145131233245134,1.0494786577939987,0.8131120341300964,0.24057237803936,0.1194750964641571,0.5896661281585693
3.506384521484375,0.3740241590335965,1.0181039339084177,1.708735178208351,0.2370498776435852,-0.0672719031572341,0.6604180932044983
3.5264365234375,0.0102268680471926,0.9985406438477336,1.999880270764232,0.1878333389759063,-0.1872109323740005,0.647972047328949
3.5464892578125,-0.186301885420829,0.9630481093797832,1.8539497048288585,0.1186956092715263,-0.2316878288984298,0.5777785181999207
3.56654150390625,-0.4459227626178413,0.8684802856087684,1.6615128237843513,-0.005042714998126,-0.2329271137714386,0.4215083122253418
3.586594482421875,-0.6181655083522201,0.7364883747853338,1.156890400242805,-0.1439337879419326,-0.2558556199073791,0.2238133996725082
3.606646484375,-0.317526976590231,0.8636273656848817,0.3157259915828704,-0.1986786127090454,-0.2857390940189361,0.1044868305325508
3.626699462890625,0.0804885911446064,0.9449209896020592,-0.7124778229922055,-0.13972869515419,-0.2193606346845626,0.0525884181261062
3.646751708984375,0.3418186834122985,0.932488062877953,-0.9256132086724044,-0.0769553482532501,-0.0044691562652587,0.0395980887115001
3.666804443359375,0.6729623896837235,0.8482646691191941,-0.5342845713555813,-0.0120440684258937,0.1271921694278717,0.0886727720499038
3.6868564453125,0.8354840980011969,0.6716945617049932,0.4013099331051111,-0.0103702088817954,0.0637951493263244,0.1537201553583145
3.70690966796875,0.618338453766331,0.4676370932325721,0.8984843787282705,-0.0260798707604408,-0.0506136193871498,0.1731038987636566
3.726961669921875,0.532127758647874,0.3676384765844792,1.035529627418518,-0.0761726126074791,-0.0630132555961608,0.1756459027528762
3.747014404296875,0.4712593753829598,0.1853995297536254,1.05121059615314,-0.1289231479167938,-0.0223240703344345,0.1426666378974914
3.767067626953125,0.4984734724577516,-0.0999813732523471,1.0957874045044182,-0.198278397321701,-0.0522823370993137,0.0905489772558212
3.78711962890625,0.8579614488776772,-0.0655064913943409,0.562675968581438,-0.1777301728725433,-0.0561705566942691,0.1279088258743286
3.807172607421875,1.0008808502983302,-0.1937512515787035,0.3234042711257934,-0.1148412227630615,-0.1387981623411178,0.1898651123046875
3.827224609375,0.85268548123613,-0.2801585652478039,0.3672001582324504,-0.1103226244449615,-0.1844426542520523,0.2438644170761108
3.847277587890625,0.5871523843206465,-0.370316025230661,0.0643120209127664,-0.0781781747937202,-0.1893299669027328,0.2361403405666351
3.86732958984375,0.2542372113972902,-0.4342671404091641,0.0156155022829771,-0.0694727152585983,-0.1683169454336166,0.1832141429185867
3.887382568359375,0.1456059370908886,-0.4677153826331719,-0.045498599371314,-0.0501596368849277,-0.1778291016817093,0.1255688667297363
3.9074345703125,-0.0456621193699538,-0.5109385478857904,-0.0742950702667236,-0.0419291369616985,-0.200401023030281,0.0459347926080226
3.927487548828125,-0.0598034209145233,-0.4816619287906214,-0.3637468029081821,-0.0098527418449521,-0.1868624091148376,-0.0380317233502864
3.94753955078125,-0.0715040513087063,-0.5320585293365642,-0.31123218729496,0.0064045106992125,-0.1476486474275589,-0.1049974113702774
3.967592529296875,0.0874476895675063,-0.4994972625475377,-0.0829471632778644,0.031714878976345,-0.0734481737017631,-0.1344205141067505
3.987644775390625,-0.0469655666513368,-0.5520692343711853,0.4220423400104046,0.0319878831505775,-0.0214283354580402,-0.1848512291908264
4.00769775390625,-0.2807831634195521,-0.6292872063472866,0.982152842018008,-0.0365144796669483,0.0143744032829999,-0.2685921788215637
4.02775048828125,-0.2484010891223326,-0.7418225754201412,0.7332020465910434,-0.0597138032317161,-0.0804153680801391,-0.3842391669750213
4.04780224609375,-0.0256239783391356,-0.6056261621115729,0.5687655176281928,-0.1089988946914672,-0.1028615310788154,-0.4240831434726715
4.067855712890625,0.3108743868332356,-0.4951652977578342,-0.0178507139891386,-0.0843670889735221,-0.1506603360176086,-0.4062183797359466
4.087907470703125,0.451936360351555,-0.5200727618580684,-0.3562859655082225,-0.0384368412196636,-0.2028444707393646,-0.3558678925037384
4.107960693359375,0.4645302132584154,-0.5565647191595285,-0.5154980378210544,0.0094894059002399,-0.2615258693695068,-0.3056662380695343
4.128012451171875,0.1897139588866382,-0.6036537295274436,-0.6087333708792925,0.0412248857319355,-0.3561208844184875,-0.3168919086456299
4.1480654296875,-0.1786469502208754,-0.585310519313626,-0.6781482678890228,0.007442123722285,-0.4571043848991394,-0.3906305432319641
4.168117431640625,-0.5163003671798855,-0.4539152957417071,-1.0329910488516092,-0.0457657165825367,-0.4363945126533508,-0.5201113224029541
4.188170654296875,-0.5365249341608956,-0.2631612166849896,-1.0504431189119816,-0.1229731813073158,-0.350699245929718,-0.661429762840271
4.20822265625,-0.1056135156541131,-0.0383873791266232,-1.0967582953631878,-0.1660979688167572,-0.3440659642219543,-0.7586447596549988
4.228275390625,0.2940268220046535,0.0700983492292463,-1.4135171371251345,-0.1709204465150833,-0.2380769252777099,-0.826910138130188
4.248327392578125,1.158514275117591,0.2842389664292335,-1.6892974872887134,-0.0958431735634803,-0.0037246025167405,-0.7362934947013855
4.268380615234375,1.7826447562888263,0.4261676763121038,-1.4203057743519545,0.0852700173854827,0.1279487460851669,-0.5093017220497131
4.2884326171875,1.7187741955332456,0.3568923339035362,-0.3313748116135597,0.2362422198057174,0.0794680342078208,-0.2785417735576629
4.3084853515625,1.1532244250811636,0.2732747240182012,0.7414286076664924,0.3053644299507141,-0.0339446812868118,-0.1328307837247848
4.328537353515625,0.4991935668932273,0.2669839533109218,1.3579676838606596,0.3319825232028961,-0.1071468815207481,-0.0828366205096244
4.348590576171875,-0.0414517168669961,0.3086969697289168,1.585599796926975,0.2768852114677429,-0.0866664499044418,-0.1353397816419601
4.3686435546875,-0.4644027509538456,0.2364293136365711,1.540073140504956,0.1613042056560516,-0.0486363023519516,-0.2723527252674103
4.388695556640625,-0.481895043426752,0.2905878970645368,1.2345622534662484,0.0314674861729145,-0.0370682440698146,-0.4217652082443237
4.40874853515625,-0.1016780576350167,0.563597467340529,0.3411404188245535,-0.0283040944486856,0.0281781200319528,-0.4890187084674835
4.428800537109375,0.4050638422785326,0.7754613717801868,-0.3246843740642071,-0.041620947420597,0.1112991869449615,-0.4399656653404236
4.448853515625,0.6402645274356007,0.8778430841725319,-0.7560428239524364,-0.0129002295434474,0.1550233960151672,-0.3107771873474121
4.468905517578125,0.7009274512562901,0.8254930114712565,-0.7650351087033748,0.0224968027323484,0.1736866980791092,-0.1572562158107757
4.48895849609375,0.4599722576931119,0.6179160636357963,-0.4513432532966137,0.0175351146608591,0.2304970175027847,-0.040399432182312
4.509010498046875,0.3954808616254478,0.3901057444583624,-0.1777870089232921,0.0203430242836475,0.2264154404401779,0.0776154771447181
4.5290634765625,0.2942238058814779,0.1512381708241999,-0.1457026023983955,0.0897784829139709,0.190757006406784,0.2042155861854553
4.549115478515625,-0.108126466589421,-0.1648220211490988,0.3808966751515865,0.1244014725089073,0.1487730741500854,0.2720704972743988
4.56916845703125,-0.5547539434105158,-0.4673285387400537,0.8791542398363351,0.1135902926325798,0.0922180488705635,0.2708148956298828
4.589220458984375,-0.8457814740013331,-0.5231965564344078,0.9577636661708354,0.1041444763541221,0.0859879255294799,0.2388416230678558
4.6092734375,-0.9913021439615636,-0.5976569002654403,0.9630588499695062,0.0767159759998321,0.1029812544584274,0.1940305531024933
4.6293251953125,-1.1271493419736622,-0.6337208048805594,0.7996130856096744,0.0627147853374481,0.0643822327256202,0.1187090799212455
4.64937841796875,-1.1252778490133584,-0.6207010912444442,0.7380337045311928,0.0155971944332122,0.0958409905433654,0.0474635250866413
4.669430419921875,-0.8189575452879071,-0.5763100877888501,0.3962900591164827,0.032682579010725,0.0895919874310493,0.0235316976904869
4.6894833984375,-0.5380044686615467,-0.6310802272439002,0.5424719694644212,0.0449466705322265,0.0578426755964756,0.0313949733972549
4.70953515625,-0.3679416242495179,-0.692827366104722,0.7503022344738245,0.0359770804643631,0.0524893999099731,0.0339585840702056
4.72958837890625,-0.1619323275895789,-0.6851886879198252,0.6892647051870823,0.0526317544281482,0.1185221672058105,0.0737160444259643
4.749640380859375,0.0108582247532904,-0.736262822401151,0.4958978498160838,0.1328464597463607,0.1564306616783142,0.1385634839534759
4.769693359375,0.0710457130819559,-0.9266445975467562,1.0363403592795133,0.1335358023643493,0.0421166978776454,0.2094452530145645
4.789745361328125,-0.0262311869846656,-1.01259349992387,1.0086258384019136,0.1349603086709976,-0.0706057846546173,0.2422055900096893
4.80979833984375,-0.1831533217294141,-1.083715127786249,0.6812427267730236,0.147278219461441,-0.0296309664845466,0.2310168892145156
4.829850341796875,-0.3838949071194976,-1.1276790649361907,0.7735960162997245,0.0764146447181701,0.1436937302350998,0.1714622676372528
4.8499033203125,-0.253592849079147,-1.16967352864407,0.5825976436257362,0.0139692053198814,0.2140304893255233,0.1333725750446319
4.869955322265625,-0.0101471538744866,-1.0501373408984391,0.0492921464353799,0.0455350913107395,0.1065186113119125,0.1598548144102096
4.89000830078125,-0.0575885578766465,-1.0033531586959958,-0.1644090564340352,0.0401432551443576,-0.0072079477831721,0.1882246732711792
4.910060302734375,-0.1811358078945428,-0.9360292426161468,-0.6747521957099437,0.030198335647583,-0.0090636294335126,0.1797559857368469
4.93011328125,-0.2762752210084349,-0.8469118662707507,-1.14239075024724,0.055789291858673,0.1221786364912986,0.1518909335136413
4.95016650390625,-0.2593625550543889,-0.7481748670563101,-1.0110668018132447,0.0654726698994636,0.3432733714580536,0.1222849637269973
4.970218505859375,-0.2196468499334529,-0.7531861193470657,-0.315420871156454,-0.0438974164426326,0.3412316739559173,0.109150730073452
4.990271240234375,-0.2539300086116418,-0.5291121371537447,-0.6253863995164632,-0.1123071312904357,0.1754348278045654,0.1159777641296386
5.0103232421875,-0.3866118379279971,-0.415211909468472,-1.2908183936953543,-0.1097737848758697,0.1045364066958427,0.0796260014176368
5.03037646484375,-0.3355040203727781,-0.2144869464196264,-1.502984057560563,-0.1245676800608635,0.2214274406433105,0.0397129654884338
5.050428466796875,-0.0941916108697652,-0.0457295585829764,-1.4231529804766176,-0.1340411305427551,0.2632645070552826,0.0332839153707027
5.0704814453125,0.2759257499836385,0.1417896667383611,-1.4421739072889088,-0.0876189544796943,0.1749989539384842,0.0937381088733673
5.090533447265625,0.2683866597156971,0.2436688364360481,-1.514371713015437,-0.0114981196820735,0.0369651839137077,0.1563578248023986
5.11058642578125,0.2618846574105322,0.4187794657569378,-1.1709680254340171,0.0077163525857031,0.0268975365906953,0.2114894837141037
5.130638427734375,0.2977208907496184,0.5632376941174269,-0.8891179999679326,0.0499084256589412,0.0868120938539505,0.2659534215927124
5.150691650390625,0.2748131856318563,0.6069218644779175,-0.3611778292030095,0.1048668250441551,0.1336542963981628,0.306017130613327
5.17074365234375,0.3160260705079883,0.7191662147149444,0.2541249831944704,0.1398836523294448,0.1092641726136207,0.3605860769748688
5.19079638671875,0.425288482324779,0.8649060803838073,0.7283586982131004,0.1731115579605102,0.0348076671361923,0.4471045434474945
5.21084814453125,0.0612496376674622,0.8224922952853143,1.046219948258996,0.1793093234300613,-0.0573316030204296,0.4506686329841614
5.230901611328125,-0.1583945453848689,0.8443127166230231,1.364492117193341,0.1051434427499771,-0.1075916364789009,0.4044830799102783
5.250953369140625,-0.1841062750726938,0.9571489683385938,1.1503326491624115,0.0337593890726566,-0.1472214162349701,0.364493727684021
5.27100634765625,-0.1742903259139508,1.0318162329185754,0.6731465140789746,0.0116180246695876,-0.1893236190080642,0.3122306168079376
5.29105810546875,-0.0978107512149959,1.0146519668236371,0.2542296126127243,-0.0136466631665825,-0.1816588044166565,0.2533127665519714
5.311111328125,-0.0240547927936539,0.958535381195694,-0.1557265682846307,-0.0343495607376098,-0.1325544714927673,0.2123944014310836
5.331163330078125,-0.0221110748473554,0.8783460652586073,-0.550976762959361,0.0371765382587909,-0.0714700520038604,0.182716965675354
5.35121630859375,-0.0264160785648971,0.661271367368102,-0.1690881541609764,0.0892922952771186,-0.0151675147935748,0.1757532358169555
5.3712685546875,-0.1968845081031322,0.4158712501600384,0.6724445032894611,0.0414654351770877,0.0229105036705732,0.0957520827651023
5.391320556640625,-0.2094029942188411,0.3340295639060437,1.0142267271488905,-0.0356306657195091,0.0635682642459869,-0.022853935137391
5.411373291015625,0.0069494172791019,0.328456439948827,0.8188052773356437,-0.0621732026338577,0.0543562248349189,-0.1005869060754776
5.43142529296875,0.537833715204522,0.4219125761508941,0.7029945398539305,-0.0543004609644413,-0.0046008750796318,-0.0622389316558837
5.451478515625,0.6557337531156837,0.3666119100157171,0.5962000525206327,-0.0482543595135211,-0.0335080921649932,0.0022219140082597
5.47153125,0.3943955140741542,0.1927452163413167,0.4712871401727199,-0.0298571363091468,-0.0461130030453205,0.006821600254625
5.491583984375,0.2136232057297602,0.0578522503141313,0.587034749290347,-0.0430801399052143,-0.0458517372608184,-0.0427444726228714
5.511635986328125,0.37310141816549,0.0505397353436797,0.5822422543168068,-0.0712706074118614,-0.0244489070028066,-0.0604554526507854
5.531689208984375,0.6518459518969059,0.0839423117950558,0.3055179013013839,-0.0434748195111751,-0.026558106765151,0.0013042334467172
5.5517412109375,0.5793402127323671,-0.0548271303392946,0.2765215239197016,0.0206990912556648,-0.1207179725170135,0.0560923926532268
5.5717939453125,0.1490325140060857,-0.2599436063453555,0.2844809584915638,0.0699154809117317,-0.1974914819002151,0.03836040943861
5.591845947265625,-0.1191638473019003,-0.4516165172800421,0.1940606828540563,0.1040720865130424,-0.1896970123052597,-0.0428265444934368
5.611899169921875,-0.4515427213914692,-0.566901696517691,0.2104115136742591,0.0875408798456192,-0.1122397407889366,-0.1971158385276794
5.631951171875,-0.5111743294030427,-0.5807384256251156,0.3635188393712043,0.0182326287031173,-0.0819204449653625,-0.3424279987812042
5.652004150390625,-0.2882814102204516,-0.5831090272139757,-0.0149807115107774,0.0167146101593971,-0.15011927485466,-0.454381912946701
5.67205615234375,-0.0182277306079864,-0.5050540929570794,-0.0920475845783948,0.0115551427006721,-0.2296069264411926,-0.4940171241760254
5.692109130859375,0.2004746050169691,-0.3205029967263341,-0.0856581758022308,-0.0126205636188387,-0.3008961379528045,-0.4580563604831695
5.7121611328125,0.2761868486052379,-0.1360277422107756,-0.4569862276196479,0.0029270332306623,-0.2652828097343445,-0.3832149505615234
5.732214111328125,0.1912974286857992,-0.0357305079422891,-0.7594955947548151,0.0402217097580432,-0.1321798115968704,-0.3198844790458679
5.752266357421875,0.1727498184736818,-0.0701456224370747,-0.7765098579198122,0.0572360306978225,-0.0571554005146026,-0.3060525059700012
5.772319091796875,0.2444838243470527,-0.154259637537226,-0.2988759790688753,0.0293440409004688,-0.0759401619434356,-0.2924134731292724
5.792370849609375,0.045907545498386,-0.1063533925022929,-0.093071082407236,-0.033412754535675,-0.174615278840065,-0.299603521823883
5.812423828125,-0.2003555634808726,0.056695627624914,-0.4237912295043468,-0.0839652046561241,-0.2883204221725464,-0.3238193392753601
5.83247607421875,-0.3218622658481821,0.0906982157960534,-0.8886053742706775,-0.1226412504911422,-0.3483661711215973,-0.3898941874504089
5.852529052734375,-0.1389760706223547,0.1415439483489841,-1.0048322913378476,-0.1777475178241729,-0.3138784766197204,-0.4275444746017456
5.8725810546875,0.0153057056814432,0.1757240850441157,-1.0806938802689314,-0.1971184462308883,-0.2566642761230469,-0.4619150757789612
5.892634033203125,0.2576055187866091,0.1338815239623189,-1.080349596875906,-0.1661729514598846,-0.1938553750514984,-0.4812731444835663
5.91268603515625,0.6946464712906628,0.1913792617503553,-1.0745780277371406,-0.1055520996451377,-0.0714075565338134,-0.4008489847183227
5.932738037109375,1.0794001141313465,0.3680225074660033,-1.0527128174096343,0.049397062510252,0.0124356299638748,-0.2097717821598053
5.952791015625,0.7593013142917305,0.3685018154155463,-0.2922808185875415,0.1920833885669708,0.0257794763892889,-0.0668295621871948
5.97284326171875,0.3808054532041773,0.3518053860280662,1.0006570514798163,0.1725518703460693,0.0171570740640163,0.0039427895098924
5.99289599609375,-0.0785106421351432,0.3566195813767612,1.4468798930227755,0.1544555425643921,-0.0695352926850318,-0.0162401162087917
6.012947998046875,-0.5829136142397299,0.361288523035869,1.2267734992861747,0.168043851852417,-0.1289756745100021,-0.1300980150699615
6.0330009765625,-0.5423776787770912,0.3391659769464284,1.3753975420892235,0.0456477850675582,-0.1304853409528732,-0.2381042838096618
6.05305322265625,-0.6422872654348611,0.4365497349210083,0.6761427732855081,-0.034816600382328,-0.0702573060989379,-0.3625112771987915
6.07310595703125,-0.4924217346707358,0.4562155355080962,0.412488914245367,-0.119692675769329,0.0148114655166864,-0.469662994146347
6.093157958984375,-0.0181737353984266,0.501344936240837,0.1388110893189907,-0.1709611266851425,0.0446967110037803,-0.4986350238323211
6.113211181640625,0.5333087120607495,0.6552895164795219,-0.4198655804932117,-0.1166801527142524,0.0973734781146049,-0.3965938091278076
6.13326318359375,0.8679242591612041,0.5649716783031821,-0.3661380819588899,-0.0483130626380443,0.14868725836277,-0.2149872183799743
6.153316162109375,0.6881183116309344,0.2800992362760007,0.0314069456547498,0.0144899617880582,0.1443191766738891,-0.071019247174263
6.1733681640625,0.4212655834842473,0.0527889755751937,0.663626990583539,0.0345176830887794,0.0893340706825256,-0.0004073337186127
6.193421142578125,0.0955731283560395,-0.0510024574846029,0.9360562767535447,0.0208722110837698,0.0818248242139816,0.0219788867980241
6.21347314453125,-0.0593797247428912,-0.1419069364424794,1.1440291651040315,-0.0426449179649353,0.0512816086411476,0.0512160845100879
6.23352490234375,-0.2787005484592169,-0.2092205503240227,0.8473194241583347,-0.0684502720832824,0.0161518473178148,0.0635178759694099
6.253577880859375,-0.3380500150611624,-0.2018714296702295,0.5008797298818827,-0.0643495395779609,-0.0324856489896774,0.074836865067482
6.273630126953125,-0.3906172011118382,-0.3173840609882026,0.4777303249627351,-0.1075072586536407,-0.0795999020338058,0.064602717757225
6.293682861328125,-0.4452757334185764,-0.3160883220892399,0.0391512761712074,-0.1053049117326736,-0.0509405955672264,0.0326638147234916
6.31373486328125,-0.408915768466331,-0.3445915821917354,-0.0184884273707866,-0.1336057037115097,0.0798970833420753,0.0234646052122116
6.3337880859375,-0.1648913235256448,-0.3475944172695279,-0.0925111104369163,-0.108217678964138,0.1857407987117767,0.0699278488755226
6.353840087890625,-0.1094705929410643,-0.5400122282873839,0.0710386988192796,-0.0423162691295146,0.169161707162857,0.1130389645695686
6.37389306640625,-0.0371873556870967,-0.7153231294207274,0.5354162057340145,-0.04360156878829,0.1492244452238083,0.1579846441745758
6.393945068359375,0.0058477396475151,-0.8664438113451004,0.5954407585859298,-0.0233176369220018,0.1351727545261383,0.1962734907865524
6.413998046875,-0.0669295830000192,-0.956837856562808,0.5336129557043313,0.03361601755023,0.1468946039676666,0.2296569496393203
6.434050048828125,-0.0435886010315269,-1.0287572106741367,0.5385071574866771,0.0832278728485107,0.1781083047389984,0.2750815749168396
6.45410302734375,0.0403100542848929,-1.0751298894662409,0.6425409479349852,0.1078317910432815,0.2097657918930053,0.3219130039215088
6.47415478515625,-0.215562539761886,-1.1827647000811994,0.7630296140998601,0.0965452715754509,0.1935869306325912,0.3036836981773376
6.49420703125,-0.3345672509793192,-1.183288577824831,0.5641413649588823,0.0903497636318206,0.1149167791008949,0.2522803246974945
6.514259765625,-0.0944272827891632,-0.995516912112385,0.1658019720971584,0.0957372039556503,0.0815142318606376,0.2704174220561981
6.534311767578125,-0.0514331039868295,-0.8682252879343927,-0.2135696854442358,0.115586057305336,0.0745040625333786,0.3175308108329773
6.554364990234375,-0.2864099172601476,-0.9495002071511,-0.3876502410650253,0.1240655854344368,0.0834417045116424,0.2862386405467987
6.5744169921875,-0.4489387494381517,-0.98217980309017,-0.2891419360399246,0.0858769491314888,0.1617307215929031,0.2047141641378402
6.594469970703125,-0.3037907852478325,-0.8553578422505408,-0.3922428295522928,0.0668313652276992,0.3161183297634125,0.1420191079378128
6.61452197265625,0.070702306471765,-0.6911383170392363,-0.1835644232809543,0.0494065545499324,0.3567256033420563,0.1525362133979797
6.634574951171875,0.3195139856889843,-0.4758004528786986,0.0451905563354492,-0.009588916786015,0.1982140243053436,0.2232874184846878
6.654626708984375,0.1141891276292502,-0.323083222477883,-0.4269119918733835,-0.0484976395964622,0.0458665303885936,0.2331375777721405
6.6746787109375,0.046182745710574,-0.2464673080481588,-0.5284422750681639,-0.1591756492853164,0.031513575464487,0.2107036262750625
6.694731689453125,0.0341456499036401,-0.0471910825029015,-1.180444294309616,-0.2045636028051376,0.0859908163547515,0.1851345896720886
6.714783935546875,0.2116016733068972,0.097541140493378,-1.610734822705388,-0.2090662866830825,0.0690876916050911,0.1740588545799255
6.734836669921875,0.5002245904413983,0.3198363495111465,-1.8506611846774816,-0.2003441900014877,0.067513421177864,0.2213161289691925
6.754888671875,0.9059452891934664,0.5988277706757188,-2.032926800319552,-0.1270660609006881,0.1195001527667045,0.3683842122554779
6.77494189453125,1.1397840018149463,0.7813900311768055,-1.666330453199148,0.0043776095844805,0.1509307771921157,0.5781042575836182
6.794993896484375,0.86363299170807,0.7156669013570993,-0.8585217861741781,0.12225092202425,0.1072481274604797,0.7098815441131592
6.815046630859375,0.5333966826051473,0.7616151441920548,0.0259971955657005,0.1622942239046096,0.1191393658518791,0.7727534174919128
6.8350986328125,0.5839079225067049,0.991896237397194,0.6386030239641666,0.1618498563766479,0.1369977742433548,0.8739475607872009
6.855150634765625,0.3456809117984026,1.0962707310419528,0.8623007201910018,0.2086245715618133,0.0657242685556411,0.9275391697883606
6.875203857421875,0.3032982524905354,1.050515307365358,1.285470018404722,0.2061371207237243,-0.0910595133900642,0.941921889781952
6.895255859375,0.094070578305982,1.1049280116848648,1.4679823022842406,0.1319301873445511,-0.1828001290559768,0.9083557724952698
6.915308837890625,-0.2087878945278003,1.0989331551842392,1.2572417027860878,0.0237929131835699,-0.1913064122200012,0.7769315242767334
6.935361083984375,-0.4174176393518224,1.0086351907521485,0.89356153537333,-0.1320338398218155,-0.1680181473493576,0.5622918009757996
6.955413818359375,-0.0004035027669742,1.1349961099512875,-0.0259334826797246,-0.2162007540464401,-0.093827836215496,0.4159355461597442
6.9754658203125,0.6566766599889844,1.19835506792292,-0.7954571349740028,-0.1740865111351013,-0.046424213796854,0.3866446316242218
6.995517578125,1.0427569483235477,1.2625685968972742,-0.9431278225749732,-0.061973750591278,0.0251093953847885,0.4424833357334137
7.015571044921875,1.1369539660207926,1.1623477888658642,-0.2375257305711507,-0.0255801193416118,0.0871614292263984,0.5064224600791931
7.035622802734375,1.0073740117099137,1.0043717611540108,0.5523655869692564,-0.0683001652359962,0.0940877050161361,0.5377657413482666
7.055675537109375,0.8320577037490904,0.865942218498513,0.6771785460740327,-0.0842815786600112,0.0756410881876945,0.5318855047225952
7.0757275390625,0.7395761116676032,0.7375364955987781,0.8364291968315839,-0.1174919307231903,0.074457086622715,0.5181862115859985
7.09578076171875,0.6860559722736478,0.5232612922336906,1.169465219655633,-0.2079841643571853,0.07138192653656,0.4876510798931122
7.115832763671875,0.6901021789245307,0.4113588873021304,0.978807038721442,-0.2382380366325378,0.0371467322111129,0.4683948755264282
7.1358857421875,0.7754904517441987,0.3146728292681277,0.4869844755202531,-0.1814325004816055,-0.0333933308720588,0.4822070598602295
7.155937744140625,0.7178335048064589,0.1393388395201414,0.2465121701031923,-0.1342301964759826,-0.0666804835200309,0.4726615846157074
7.17598974609375,0.5752881243299692,-0.017227394459024,0.3100561292529106,-0.1547701954841613,-0.0335741192102432,0.4254025816917419
7.196042724609375,0.4286539401698857,-0.0680152593448758,0.180386962288618,-0.1463769525289535,-0.0421786420047283,0.3548194766044616
7.2160947265625,0.3978116426605731,-0.096446330993995,0.0187497086554765,-0.1238916218280792,-0.1116479933261871,0.2771704792976379
7.23614794921875,0.5391848010199144,-0.0201522689297795,-0.3656067515611648,-0.0635760799050331,-0.1123619973659515,0.2665636539459228
7.256199951171875,0.5954763048233463,-0.0173189451999962,-0.3350672363907098,-0.0082160774618387,-0.0746608451008796,0.2562832534313202
7.276252685546875,0.387394366607815,-0.1812082886088639,-0.0966553706347942,-0.0238752886652946,0.0288749523460865,0.1960860192775726
7.2963046875,0.2016439227909781,-0.362343511981517,0.097756025353074,-0.0749164000153541,0.1265535056591034,0.0806524157524108
7.31635693359375,0.3115134153891354,-0.3361526935398578,0.1004535938739776,-0.0936574265360832,0.1773858666419983,0.0270534381270408
7.336409912109375,0.7875837712503969,-0.1901964086413383,-0.1350946991443634,-0.0156636834144592,0.0560003891587257,0.1109316945075988
7.3564619140625,0.8656872938893735,-0.1437326905649155,-0.2157517056584358,0.0974567010998725,-0.149772897362709,0.2378604114055633
7.376514892578125,0.347586818484962,-0.2842906966164708,0.0110690910249948,0.0797005891799926,-0.2402397543191909,0.2361432164907455
7.39656689453125,0.0373976557032205,-0.3324602687627077,-0.0358686012387275,-0.0041010393761098,-0.2443439364433288,0.1769802570343017
7.416619873046875,0.0252268505140207,-0.2337749266702681,-0.4770879354059696,-0.0461856201291084,-0.2581287622451782,0.1384599655866623
7.436671630859375,-0.1017283082512207,-0.104143680563569,-0.9180646929889916,-0.0669861808419227,-0.318597674369812,0.100767396390438
7.456723876953125,-0.1783628543161787,0.0381643109604716,-1.3345815475761889,-0.062323547899723,-0.3060948252677917,0.0792094022035598
7.476776123046875,-0.0167576945880427,0.1488806479126214,-1.1559849758356808,-0.0522828996181488,-0.2175367176532745,0.1157290637493133
7.496828125,-0.0478844350619241,0.051606926183775,-0.7509808643877506,-0.0516098998486995,-0.1531715095043182,0.1261076480150222
7.516881103515625,-0.0034091143237426,-0.0661338295124471,-0.2631359726458788,-0.0723232254385948,-0.1202053874731063,0.1310439109802246
7.53693310546875,0.5305994531020521,-0.0346598830360919,-0.0981236896216869,-0.021335856989026,-0.1675023734569549,0.2161821275949478
7.556986083984375,0.7976843825694173,0.0303653276473283,0.0753606536716222,0.0989487096667289,-0.2312758862972259,0.3492938578128814
7.5770380859375,0.617497326767072,-0.0836956435576081,0.5813806690514087,0.1419024914503097,-0.2489832937717437,0.4231849312782287
7.59709033203125,0.5795966351788491,-0.1421828307744115,0.7441226690560578,0.1567418575286865,-0.2529020309448242,0.4716731309890747
7.61714306640625,0.4078348778944462,-0.1701518378697335,0.7911363491654395,0.1758311837911605,-0.2771751284599304,0.4656594693660736
7.637195068359375,0.2588000623334199,-0.1130925645641982,0.8476327278912067,0.1395557969808578,-0.2383633553981781,0.4203062355518341
7.657248291015625,0.2745110974127426,-0.1034947882007807,0.8134785293549299,0.0898595005273819,-0.1881158351898193,0.3620811402797699
7.67730029296875,0.5254960290158167,0.048054567464441,0.377311217880249,0.1134096309542656,-0.1382302641868591,0.3397693932056427
7.697353271484375,0.9068930183723568,0.2192936891142279,0.1897258685201406,0.1335348784923553,-0.0765990540385246,0.3798619508743286
7.7174052734375,0.8546301855631172,0.2981722877789288,0.2224620169520378,0.1111284717917442,-0.0284165646880865,0.4024632573127746
7.73745703125,0.9040122753042727,0.4790625964798033,0.1033931544572114,0.094324491918087,-0.0230149887502193,0.4427630007266998
7.75751025390625,1.037215388548374,0.6428929031778127,-0.0611737228870391,0.0663430094718933,-0.0375933647155761,0.512599527835846
7.77756201171875,0.9663211397010832,0.7865614424653351,-0.3087023765563965,0.0131501518189907,0.0218470953404903,0.5810869336128235
7.797614990234375,0.9589021686814724,0.8478405984882265,-0.7771464022576808,0.0063025560230016,0.1090964078903198,0.6672812700271606
7.817667236328125,1.1173241135299206,0.8370220481581986,-0.8788064493119716,0.0542698577046394,0.1799425780773162,0.8019130825996399
7.83771923828125,1.0791538112200796,0.7529017494477331,-0.4782575637072324,0.0973868444561958,0.2163912057876587,0.9175136089324952
7.85777197265625,0.9199901080936193,0.733584177776426,0.0288911634415388,0.1164516657590866,0.2282439470291137,1.0071905851364136
7.877823974609375,0.8014156049869954,0.6495886014241725,0.651155631545186,0.0750849395990371,0.2655485868453979,1.0911519527435305
7.897877197265625,0.452057648643665,0.4227398938205093,0.9969155268639326,0.0074872570112347,0.2735657095909118,1.1051005125045776
7.91792919921875,0.3826419479163363,0.293274578865245,1.094625959509611,-0.0538251511752605,0.2072899341583252,1.1213730573654177
7.93798193359375,0.5193107645096257,0.239046583462879,0.867794641432166,-0.1080111712217331,0.1187873408198356,1.1802430152893066
7.958033935546875,0.3358811100568622,0.1844625411644578,0.3819622585564851,-0.1258770376443863,0.1050139218568801,1.2176215648651123
7.978087158203125,0.1990090259764343,0.1245996816802769,0.1584866806477308,-0.1127453669905662,0.1401959508657455,1.2261310815811155
7.99813916015625,0.2639624135326594,0.0687891663268208,0.081075524187088,-0.1102472320199012,0.1895963847637176,1.248232364654541
8.018191162109375,0.4106261160481721,0.0929134806927293,0.0465197591125965,-0.1086222901940345,0.1960355639457702,1.2961088418960571
8.038244384765624,0.332778540931642,0.019183423897624,0.0797948367267847,-0.1107275336980819,0.1861315220594406,1.3192296028137207
8.05829638671875,0.4148272575324401,0.073160878605023,0.1101344454109668,-0.0655581355094909,0.1539976000785827,1.405964493751526
8.07834912109375,0.4108042856266722,0.0573122982185333,-0.0170265381246805,0.0348323099315166,0.0921320617198944,1.4796053171157837
8.098401123046875,0.2899769986245781,0.0687110595893114,0.1723959635347128,0.0732195526361465,0.1420200765132904,1.5233689546585083
8.118452880859374,0.3037720074821263,0.0001610357806086,0.2830442036867142,0.0635995417833328,0.1775154769420623,1.535550236701965
8.13850634765625,0.4477454480003565,0.0061085460081696,0.0757131203711032,0.0947834402322769,0.1839339733123779,1.5664405822753906
8.15855810546875,0.5580208727845922,0.1144598343294113,0.3089525519251823,0.0848268792033195,0.2333546280860901,1.6383599042892456
8.17861083984375,0.5744389601547271,0.1157090306729078,0.1513058292329311,0.1065537929534912,0.2107389420270919,1.7016088962554932
8.1986630859375,0.6442413951773196,0.1619251306638121,-0.0495616110265254,0.1695681363344192,0.1160809993743896,1.767475724220276
8.218716064453124,0.5183421386731788,0.2211399745680391,0.0414636447668075,0.1600120216608047,0.0748336166143417,1.8170655965805051
8.23876806640625,0.1517914573254063,0.2016150437563657,-0.0783908151477575,0.0789505317807197,0.0984124094247818,1.8036952018737795
8.258820068359375,-0.0356798006683588,0.2370724338456988,-0.4802858546644449,0.0018133115954697,0.1289363801479339,1.7536770105361938
8.278873046875,0.1132573997370898,0.3397593397296965,-0.8751128554910421,-0.008149292320013,0.1587055474519729,1.702001690864563
8.298925048828124,0.2285942726293578,0.4318669108670204,-1.1244646329343315,0.0129039343446493,0.3377696275711059,1.6410017013549805
8.31897802734375,0.7369936939589679,0.4450977099705487,-0.7396563372969627,-0.0014167098561301,0.438764214515686,1.6610658168792725
8.339030029296875,1.150569161332026,0.4857380556557327,-0.5513631319284439,0.0641317814588546,0.2442312091588974,1.7299001216888428
8.359083251953125,1.1263191016945988,0.5349276184994727,-0.3914928879678249,0.1155242249369621,0.0686604902148246,1.7651549577713013
8.37913525390625,0.8395887568410485,0.5017467950399965,-0.6363023458063602,0.1079950332641601,0.1436389684677124,1.7104244232177734
8.399187255859376,0.8620516408007591,0.6207493873655796,-0.8270137182325125,0.1498451232910156,0.2291692495346069,1.6577342748641968
8.419240234375,0.8635181331567465,0.7107807367507368,-0.5380740267664194,0.1785233914852142,0.2694196105003357,1.5976696014404297
8.439292236328125,1.0478219766281545,0.858886016376689,-0.0291015913218259,0.1587160378694534,0.2863089740276336,1.5713804960250854
8.459344970703125,1.2150525202237068,0.997121570830047,0.1851572454303502,0.1722651571035385,0.2331337332725525,1.562587857246399
8.47939697265625,1.337749071696401,1.1667288534943014,0.4462848008632659,0.1789826154708862,0.2029175758361816,1.5948028564453125
8.49944873046875,1.3671373710051178,1.2482517561227082,0.4965612821608781,0.2000976502895355,0.164624735713005,1.5942857265472412
8.519501708984375,1.2859464037448167,1.238928924243152,0.7495096227914094,0.1341332048177719,0.1766328364610672,1.5530080795288086
8.5395537109375,1.2165762226596477,1.2415491897441446,0.8066068900197744,0.0259425826370716,0.2541248202323913,1.4881987571716309
8.559606689453124,1.4291174418389796,1.404026839724183,0.4905237555623054,0.0153143759816885,0.2167135924100875,1.4939292669296265
8.579658935546876,1.4802990552827715,1.4172060547709464,0.4258569298624992,0.0329639762639999,0.0638032183051109,1.5154719352722168
8.5997119140625,1.125287128298357,1.2818240631178022,0.5756716437548398,-0.0385223925113678,0.024872563779354,1.4765276908874512
8.619763916015625,0.7942118110880255,1.1540179866116491,0.3671341072589159,-0.1207890585064888,0.0905870571732521,1.3719635009765625
8.639815673828124,0.8358364916354417,0.983642349923402,0.091875735142827,-0.1739323735237121,0.1529814302921295,1.2883726358413696
8.659868896484374,1.0849823712430893,0.9579021247934548,-0.12749182292521,-0.1823385506868362,0.1757257133722305,1.2738522291183472
8.6799208984375,1.1385175620757042,0.8023616536654532,-0.1024608420431613,-0.1996267139911651,0.1594935655593872,1.2663064002990725
8.699973876953125,1.1803200834080576,0.6312025384493172,-0.2517430564939976,-0.1803656816482544,0.1261235475540161,1.2415035963058472
8.72002587890625,1.2818971283540128,0.5402738748982548,-0.0989794296681881,-0.1895066648721695,0.1412245035171508,1.2398806810379028
8.740078125,1.1204570777934044,0.4423199888855219,-0.0529237809360027,-0.197120651602745,0.1877923905849456,1.2274549007415771
8.760130859375,1.0401943312939257,0.2781618384726345,-0.0033750293910503,-0.2090846300125122,0.1757264137268066,1.1952733993530271
8.780182861328125,1.0476597718037663,0.2259663718111813,-0.1469867969900369,-0.1949347406625747,0.1725322157144546,1.172013282775879
8.800236083984375,1.090627902849391,0.1790544715758412,-0.2445814943015575,-0.154769092798233,0.1566160321235656,1.1716794967651367
8.8202880859375,1.0411265706427395,0.1238655221868306,-0.1649555844008922,-0.1534179449081421,0.1311452835798263,1.1719852685928345
8.8403408203125,0.7785124299138784,0.0174454941891133,-0.0097825583457946,-0.1661950349807739,0.0510435625910759,1.1333045959472656
8.860392822265625,0.6365703490927815,-0.1166748800303787,0.0943500163018703,-0.1894010603427887,-0.1641059219837188,1.012176752090454
8.88044482421875,0.7522373672548681,-0.0930941344892606,0.0034393267989158,-0.1872513592243194,-0.2453882694244384,0.975271463394165
8.900497802734375,0.6361356109373271,-0.0611942542184144,-0.1008633437186479,-0.1369360238313675,-0.2290724962949752,0.9420198798179626
8.9205498046875,0.5741057461449877,-0.1569943597307428,0.08435410746634,-0.0933935195207595,-0.1925300657749176,0.8687072396278381
8.940602783203126,0.5373179111694917,-0.1892455011246726,0.0746890380203723,-0.0473550036549568,-0.1207736358046531,0.7812085747718811
8.96065478515625,0.6513893672358244,-0.1830482904523611,0.0843009159743785,0.0041877073235809,-0.0829775109887123,0.7795769572257996
8.980706787109375,0.7899322340726852,-0.180815636029467,0.1203209083825349,0.0893908143043518,-0.1833504140377044,0.799651563167572
9.000759765625,0.891087692605704,-0.2531679016653448,-0.0627817426055669,0.1796993166208267,-0.3127071857452392,0.8285836577415466
9.020811767578126,0.8873215450052171,-0.211227287036553,-0.0579220276147127,0.213880106806755,-0.3450306057929992,0.8260840773582458
9.040864990234375,0.6652793609004467,-0.2584385355446487,0.0350140302360057,0.1796741783618927,-0.3182743787765503,0.8592798709869385
9.0609169921875,0.0259554022505879,-0.4397557278880849,-0.4203624240994453,0.1233599483966827,-0.2730484306812286,0.7572473883628845
9.0809697265625,-0.0724503191828727,-0.4360413835400715,-0.8177350177556276,0.1182195618748664,-0.1404968798160553,0.623779296875
9.10102197265625,0.4785916910324245,-0.2253709632012993,-0.5364771129637956,0.0438990108668804,-0.0186382792890071,0.5884018540382385
9.121073974609375,0.8626043793126941,0.1390362398443743,-0.5961421848535537,0.050671961158514,0.1579359620809555,0.6512165069580078
9.141126953125,0.798388512250781,0.0421272597746923,-0.360201677647233,0.029190668836236,0.1987100839614868,0.6671442985534668
9.161178955078125,0.8816370696280151,0.1363705277664587,-0.6088298169910907,0.1276897192001342,0.0944835245609283,0.6928249597549438
9.18123193359375,0.9140412096265704,0.319164514664188,-0.474655155301094,0.2296806722879409,-0.0224063470959663,0.7772566080093384
9.201283935546876,0.7489272928588092,0.4013526762682944,-0.2866366752207279,0.3006736040115356,-0.0577334463596344,0.858130693435669
9.221335693359377,0.3238200853850692,0.3245468652896583,0.1664379319131374,0.2684510946273803,-0.0115755386650562,0.8764507174491882
9.241388916015625,-0.1125495437286794,0.1688812334120273,0.6732628339350223,0.1219282001256942,0.0947710573673248,0.7885036468505859
9.26144091796875,-0.0789138891737908,0.1453746125530451,0.545752890831232,0.0556355006992816,0.2140072584152221,0.7110170125961304
9.281493896484376,0.2333465451903641,0.3339070335049182,0.3104471743971109,0.1400085687637329,0.2962631583213806,0.7265899777412415
9.301545654296875,0.4730940434642136,0.3660148209054022,0.7289233463585376,0.1927005499601364,0.276746541261673,0.7807126045227051
9.32159765625,0.4030571786312386,0.3654541182827204,0.9332634311646224,0.1577533781528473,0.3067567944526672,0.8451763987541199
9.34165087890625,0.3110972723362967,0.2747076063655316,0.8595423613935709,0.0682485848665237,0.2977127134799957,0.8922072649002075
9.361702880859376,-0.0019859131202101,0.1561898018822073,0.5722568668752909,0.0250453483313322,0.2153821736574173,0.9094271063804626
9.381755859375,-0.0699087449412792,0.2904593022488057,-0.1161889231443405,0.0798486024141311,0.0939000993967056,0.8843084573745728
9.401807861328123,-0.1261390200767666,0.3679632515594363,-0.6265612885147333,0.0900259166955947,0.1230500265955925,0.9050478339195251
9.42186083984375,-0.3719956123480573,0.2886470651950687,-0.7414034732252359,0.0397284030914306,0.2255676239728927,0.927943229675293
9.441912841796874,-0.607567688100785,0.2655881881035864,-0.8423843058437108,0.0309802163392305,0.4052450954914093,0.9560941457748412
9.461965576171876,-0.580076966041699,0.2984247281700372,-0.5836889459937811,0.0544082634150981,0.5749841928482056,0.9859126210212708
9.4820185546875,-0.3493100620809942,0.458535429823026,-0.2073532951474189,0.1762168258428573,0.5584544539451599,1.0535517930984497
9.502070556640623,-0.3424820792244747,0.3919236806005239,0.1104565169721841,0.4081036150455475,0.1816436946392059,0.9425540566444396
9.52212353515625,-0.8789838517054915,0.0303862243048846,1.4735861136406658,0.1681753098964691,0.1597055196762085,0.8772324323654175
9.542175537109374,-0.8989688743095845,-0.0184560594711452,0.9886702610880136,-0.0209468491375446,0.2221908271312713,0.8117159605026245
9.5622275390625,-0.7873849607426673,0.0040575317624956,0.3597387363106012,-0.0513992942869663,0.2431133687496185,0.7867625951766968
9.58228076171875,-0.5593730180459097,-0.0714569242313504,0.6881681421220303,-0.1371134519577026,0.2058169692754745,0.8114703893661499
9.602332763671876,-0.6420249612368643,-0.2264918569900095,0.7295873632252216,-0.1681418716907501,0.1334177106618881,0.7794980406761169
