timestamp,acc_x,acc_y,acc_z,gyro_x,gyro_y,gyro_z
0.0752255859375,0.0616297960914671,-0.0410344595693051,-0.9735732297211884,0.2028578817844391,0.0592566579580307,-0.7303531765937805
0.095277587890625,-0.0379879314802587,-0.0679746350735426,-0.2918757449179887,0.1132094636559486,0.2629224359989166,-0.798172652721405
0.11533056640625,0.3174681956076994,0.133443497871235,-0.085605568832159,0.0426467880606651,0.4401103556156158,-0.8029133081436157
0.135383544921875,0.6281268573310226,0.3253315859265625,0.1098223107218742,0.0894457474350929,0.5383314490318298,-0.6795058846473694
0.155435546875,0.5344949992358684,0.3234490601155906,0.2928068882882595,0.1875268518924713,0.4974350929260254,-0.6156788468360901
0.17548876953125,0.6936455506198108,0.3886602218251675,0.7614362074285745,0.2849273681640625,0.4304237365722656,-0.4694722890853882
0.19554150390625,0.5013235281266272,0.3164784904506057,1.7033365340352058,0.2211778461933136,0.3752824366092682,-0.3043263554573059
0.215594482421875,0.1119142141003627,0.2438949002768844,1.9044810376703736,0.143316313624382,0.3556568920612335,-0.2240820825099945
0.235646728515625,-0.2143886736769229,0.1473926013119518,1.8253847046017648,0.0783253908157348,0.2917904555797577,-0.259775161743164
0.255699462890625,-0.0830851835090667,0.0587385316293686,1.3474024507045743,0.0023001991212368,0.1738074868917465,-0.2288695126771927
0.27575244140625,-0.0203589704830199,0.0757877930425107,0.3792044842809438,-0.0079720504581928,0.1392570883035659,-0.1466879099607467
0.295804443359375,0.0988452453618869,-0.1080076625153422,0.0594803629726171,-0.0678801760077476,0.0574908331036567,-0.0499522648751735
0.315857666015625,0.0629257907187566,-0.1428601455140858,-0.5968295825958252,0.0091661121696233,0.0172285940498113,0.0186036601662635
0.335910400390625,0.0192383324226364,-0.0924978125639259,-0.5962082358270884,0.1331008523702621,0.1392625719308853,0.0934264883399009
0.35596240234375,-0.1373237733706832,-0.3041542847979813,0.3543208029150962,0.1121072992682457,0.2539131343364715,0.1294690370559692
0.376015625,-0.0013761837240308,-0.4252821987144649,0.8358551963359117,0.048674501478672,0.1673167049884796,0.1826294809579849
0.396068603515625,-0.1854630599765107,-0.4115114475153386,0.5218593895465136,0.1119837611913681,0.0313231237232685,0.2341850250959396
0.41612060546875,-0.4587260570243001,-0.5665753141075373,0.7252724226355552,0.1104463785886764,-0.0329504758119583,0.2334416806697845
0.436173583984375,-0.8373453618284314,-0.7614040587246418,0.8688380130052566,0.0263635069131851,0.0171398762613534,0.1364572942256927
0.4562265625,-0.5912090027676895,-0.7946233875636011,0.9544628710597752,-0.0814953595399856,0.1013838946819305,0.1142601519823074
0.476278564453125,-0.4331842040106654,-0.9046508654687552,0.678701810118556,-0.0715235099196434,0.044998425990343,0.1288157403469085
0.49633154296875,-0.5997644304713234,-1.0107777557387947,0.3085977471381426,-0.0240225866436958,0.0400421842932701,0.1206129640340805
0.516384521484375,-0.3580295577725395,-0.9926803004469722,0.0101169048666954,0.0277567189186811,0.1033799052238464,0.1238849312067031
0.5364365234375,-0.019309918087814,-0.9998498998153954,0.1628290937662124,0.0332479029893875,0.1430222988128662,0.1643085181713104
0.55648974609375,-0.3423234180640429,-1.2101340607829392,0.3891431099712848,0.0576089508831501,0.1659579873085022,0.1749395281076431
0.57654248046875,-0.5804962143670768,-1.435855225661397,0.4657265834361314,0.0980229377746582,0.1835651248693466,0.1539578288793563
0.596595458984375,-0.4052318557891994,-1.5272893545165658,0.4364683402478694,0.1241629496216774,0.1456371694803238,0.1604418009519577
0.616647705078125,-0.1535770621005445,-1.3440556244947015,0.0037976387172937,0.1970836967229843,0.1226473376154899,0.1865011602640152
0.63670068359375,-0.4410679429978132,-1.212187778442353,-0.0138169284284114,0.2227866649627685,0.2809742987155914,0.1932709217071533
0.65675341796875,-0.5733082756243646,-1.2588624358557163,0.485326771441102,0.136024534702301,0.3969825506210327,0.180179938673973
0.676805419921875,-0.4697392166109755,-1.0583281730733811,0.4414040430843829,0.0843019112944603,0.296066015958786,0.1841712892055511
0.696858642578125,-0.2324789320429787,-0.808626559279114,-0.4031780650645494,0.1781370341777801,0.1778813302516937,0.2000591903924942
0.71691162109375,-0.3012620704878121,-0.7035366839066147,0.0515875638961791,0.0803046971559524,0.2018420249223709,0.2035559862852096
0.73696337890625,-0.2346580661803483,-0.460428038636595,0.3499409803956747,-0.1110898330807685,0.1036930009722709,0.2002569139003753
0.7570166015625,-0.1324153969325125,-0.0967306278280913,-0.3135159143179655,-0.1919348537921905,-0.1268531382083892,0.2187685221433639
0.777069580078125,0.0594700607743114,0.2658582372166216,-1.306657183340192,-0.1911811381578445,-0.1759958118200302,0.3111865818500519
0.79712158203125,-0.1060401618346571,0.1440012053079903,-1.645229797503352,-0.1981593519449234,-0.1239545941352844,0.3338662385940552
0.817174560546875,0.0254384291717782,0.0953776057839393,-1.6019775157541036,-0.1882062256336212,-0.0640914738178253,0.3396497368812561
0.83722705078125,0.2651385811725631,0.2658319337315857,-1.4913029721170663,-0.1724068969488144,0.044566486030817,0.3970327377319336
0.857279052734375,0.14906521069929,0.3158962335832417,-1.207018412980437,-0.1094227954745292,0.1890421360731125,0.4847374558448791
0.877332275390625,0.0111381742058321,0.1554345265354961,-0.8851175321549176,-0.0418084561824798,0.1100479289889335,0.4931353330612182
0.897385009765625,0.221180818035081,0.2938448530338704,-0.6658803224682808,-0.0278119388967752,0.0325631499290466,0.5394243001937866
0.91743798828125,0.0866609231039881,0.5107678674940019,-0.6743792707443237,0.0636691451072692,0.034098345786333,0.6014429926872253
0.937490234375,-0.1560667965570464,0.5334161179579794,-0.1066273140728473,0.1051493063569068,0.0614877417683601,0.606192409992218
0.957543212890625,-0.1647691219180822,0.5907796349070966,0.3154945209145546,0.1054138541221618,0.0537774823606014,0.5955663323402405
0.977595947265625,-0.1496765840632841,0.679715517205745,0.5003285257399082,0.1568029820919037,-0.0625152960419654,0.5930879712104797
0.99764794921875,-0.2178719857480376,0.6932062824197113,0.4178220919668674,0.1559611409902572,-0.1486574709415435,0.5543086528778076
1.017701171875,-0.3330609746022149,0.8273096324391662,-0.0323965412139892,0.2353687435388565,-0.2060335725545883,0.4989009499549866
1.037754150390625,-0.3513715977206826,0.9640686115339396,0.1396598151028156,0.2771277129650116,-0.2110329866409301,0.4292051196098327
1.05780615234375,-0.0873444118561223,0.9623381344795228,0.7577426136076449,0.0955805033445358,-0.2146447002887725,0.3501982092857361
1.077859130859375,0.2180707597231492,0.8711762466944754,-0.078533438488841,-0.0926070511341095,-0.0652784034609794,0.2672789096832275
1.097912109375,0.0138910165779292,1.0111040650837122,-0.5183306308984756,-0.049664806574583,0.1189673915505409,0.2044058442115783
1.117965087890625,0.0804947834233753,1.034263553005457,0.1948345898360013,-0.0166376587003469,0.1958793550729751,0.1881608664989471
1.13801708984375,0.752229695405066,1.006977340542525,1.3133967207282782,-0.1710093766450882,0.0659736990928649,0.2922273576259613
1.158070068359375,0.9747637546800076,1.1050007846601306,1.1805074226737022,-0.2139885574579239,-0.1729691922664642,0.4409161806106567
1.178123046875,0.5621824859760701,1.0621147058747709,0.3341349239766598,-0.0445294268429279,-0.328108012676239,0.4753382802009582
1.19817529296875,-0.1864494406653568,0.8235663542576134,0.3209679838895797,0.0495318062603473,-0.2555122077465057,0.3334570527076721
1.21822802734375,-0.2055626854036003,0.5264531470775604,1.0797475393295288,-0.0999737977981567,-0.1251700520515442,0.188362181186676
1.238281005859375,0.0573760841697454,0.6318621714018285,0.5854957031548023,-0.1559585034847259,-0.0215364918112754,0.1132141724228859
1.258333251953125,0.5554822942176834,0.6424190751209855,0.2409720716327428,-0.1397571265697479,0.008753266185522,0.14436936378479
1.27838623046875,0.6243358675502241,0.4903042675927281,0.2873854477614164,-0.1302637606859207,-0.0585783086717128,0.1793108731508255
1.29843896484375,0.5087203603796661,0.3413549383580684,0.0609486819595098,-0.0568701773881912,-0.1957231909036636,0.1987100690603256
1.3184921875,0.1104128239609301,0.1426446761325001,0.0275584535330533,-0.010533882305026,-0.2526699304580688,0.1459643393754959
1.338544189453125,-0.2022644841084256,-0.0463102080151438,0.2662625802338123,-0.0638938546180725,-0.2040840238332748,0.0638772621750831
1.358596923828125,-0.2563796302534639,-0.116087216335535,0.0426911407351493,-0.0953478142619133,-0.20619697868824,-0.0505681857466697
1.378650146484375,-0.2417351649597287,-0.0477432364929467,-0.1498480316400527,-0.1351609975099563,-0.2117213904857635,-0.1563979536294937
1.3987021484375,-0.1725648538282141,-0.1122849014431238,-0.3871872997283935,-0.1852717846632003,-0.1750492602586746,-0.2270609885454177
1.418755126953125,-0.2887720798142254,-0.1831423984766006,-0.8253817331165075,-0.1373061537742614,-0.1234534233808517,-0.3098839223384857
1.43880810546875,0.0406605299566872,-0.1156519667234271,-0.6642132660388946,-0.0818287953734397,-0.073847621679306,-0.3053339123725891
1.458861083984375,0.2447310588400811,-0.2453495560646057,-0.0395797307163476,-0.115762710571289,-0.0458908006548881,-0.2695139348506927
1.4789130859375,-0.1516493089083582,-0.448534771747142,0.0249707751274108,-0.1280418783426284,-0.0096831042319536,-0.3607822060585022
1.49896630859375,-0.198087728146743,-0.5166113328251988,0.1483557472556829,-0.1315543353557586,0.0151130640879273,-0.4752376675605774
1.51901904296875,0.365754781729728,-0.3021918256185948,0.1354834062010049,-0.1367960423231125,0.0342741608619689,-0.4403821229934692
1.539071044921875,0.5113750396069139,-0.2487025928195566,-0.1998766756564378,-0.0456465892493724,0.0164237506687641,-0.3720798790454864
1.5591240234375,0.1408091678010299,-0.4268118924997747,0.1522165143370628,0.0168275535106658,-0.0260872673243284,-0.4076648950576782
1.579177001953125,0.1272518218905665,-0.4581610435526818,0.5896072301268577,-0.0208120420575141,-0.0041692066006362,-0.4587293267250061
1.59922998046875,0.3224772194087505,-0.3046585810583084,0.5487830523073673,-0.0360702537000179,-0.0116449613124132,-0.4566732048988342
1.619281982421875,0.184370442434214,-0.3362270739503205,0.1578273399561643,-0.0396969132125377,-0.1304009705781936,-0.4852891862392425
1.639335205078125,-0.2460674585429951,-0.3905290844369679,-0.227898070526123,-0.0666545554995536,-0.2184825390577316,-0.6306090354919434
1.659387939453125,-0.2340412494562566,-0.2801369379378855,-0.5993056173205376,-0.1330216377973556,-0.2164905965328216,-0.779784619808197
1.67943994140625,0.1423338200850412,0.0704372257947921,-1.154265312436223,-0.1429802328348159,-0.1900752931833267,-0.8135349154472351
1.6994931640625,0.1179557501537725,0.0838430892042815,-1.581998557564616,-0.072421096265316,-0.1421534121036529,-0.8714408278465271
1.719546142578125,0.1662507387779652,0.0689286478627473,-1.2435861023992298,-0.0771207436919212,0.0761106014251709,-0.9137603044509888
1.73959912109375,0.5586686326362192,0.1850263125270605,-1.0460153655976057,0.0112279318273067,0.240473136305809,-0.8536149263381958
1.759651123046875,0.5778366397690028,0.2138531785607337,-0.4755570725768804,0.1296748220920562,0.3040851950645447,-0.7444272637367249
1.7797041015625,0.5308424315450713,0.1883878248494118,0.3655880468606948,0.2009539157152176,0.2668288946151733,-0.6070191860198975
1.799757080078125,0.4331926065128296,0.1628431222915649,0.857225901144743,0.2418209463357925,0.1220759078860282,-0.5116897821426392
1.81981005859375,0.0821255446966737,0.18547946312204,1.0848340488135817,0.2211271822452545,0.0932691022753715,-0.4469073414802551
1.839863525390625,-0.1702989912554621,0.1357369425706565,1.084946861538291,0.1621005535125732,0.1093648970127105,-0.4248723089694977
1.85991650390625,-0.1351755823608487,0.1847526832174509,1.0098498272389174,0.1042027398943901,0.0935746058821678,-0.4013293087482452
1.879969482421875,-0.0254543939258903,0.2352491639412939,0.6776771432459354,0.0434180945158004,0.05611527338624,-0.3647277355194092
1.900021484375,0.2285495932374149,0.2883568500768393,0.244705412942171,0.0024023703299462,-0.0003207945264875,-0.276939183473587
1.92007470703125,0.2753299395149574,0.3493915298193693,-0.3635685237318277,0.022020149976015,-0.007031220011413,-0.1617964953184127
1.94012744140625,0.1450045645311009,0.2669185599245131,-0.5653063170850277,0.0616700798273086,0.0639047771692276,-0.0679091289639473
1.9601806640625,0.0849683303745463,0.1026546110495924,-0.1601730262994766,0.0450498275458812,0.180840715765953,0.0132541675120592
1.980232666015625,0.2487175711929798,0.0214195854518562,0.1607540410578251,0.0671703219413757,0.2124545276165008,0.1164878532290458
2.000285400390625,0.2214231936899013,-0.1062393376685678,0.425363008865714,0.1308839619159698,0.1517476439476013,0.2180683761835098
2.02033837890625,-0.0853794319260865,-0.2724795550525188,0.7770604775398969,0.1494889110326767,0.0684157460927963,0.2588450014591217
2.040391845703125,-0.4165667946761474,-0.4386857240363955,1.0932336283683777,0.1034230813384056,0.0093333320692181,0.2371259182691574
2.060443603515625,-0.5073503141354769,-0.3717968383729457,0.9990759197682142,0.0508398041129112,-0.0201800055801868,0.2248769402503967
2.080496337890625,-0.4398113670654595,-0.3626500937126576,0.7444061621725558,0.0056981593370437,-0.051466554403305,0.2212220132350921
2.1005498046875,-0.5525280475219712,-0.4342120857536792,0.4161082737863064,-0.0295426081866025,-0.0511673167347908,0.170834943652153
2.120602783203125,-0.5618584416534751,-0.4530618937827646,0.2819575774937868,-0.0456518344581127,0.0221114866435527,0.1303911507129669
2.140654541015625,-0.395161018553935,-0.5250022176168859,0.3500637299925088,-0.0376184545457363,0.0670170113444328,0.104519672691822
2.160707763671875,-0.2094573364882729,-0.3983731490008533,0.2584118667334318,0.0349697731435298,0.1804116368293762,0.1385156661272049
2.1807607421875,0.056034716030769,-0.5726568259783089,0.8352852874934673,0.0149337705224752,0.2194157540798187,0.2076736837625503
2.2008125,0.261421204617247,-0.6927443639963865,1.0650175877094268,0.011679071933031,0.088467352092266,0.3122951984405517
2.220865966796875,0.1032865522775799,-0.8125248818919062,0.7818044571965932,0.1272383034229278,-0.0937054231762886,0.3641305863857269
2.240918701171875,-0.1194420066561549,-0.917479732707888,1.0119716416984796,0.1326782703399658,-0.0783200934529304,0.3579108119010925
2.2609716796875,-0.3611926614459604,-0.9729927994847296,0.9373241047322748,0.0580759495496749,0.1409826576709747,0.2862395644187927
2.2810234375,-0.2665805966744199,-0.9669286771401764,0.8553811500608921,-0.0245207790285348,0.2037972062826156,0.2370636016130447
2.30107666015625,0.037966925224848,-0.8048010096415877,0.6698918961971998,-0.0532293058931827,0.0433927848935127,0.258787453174591
2.321129638671875,-0.0762510631727054,-0.7063496955007315,0.18571721740067,-0.0468410663306713,-0.0841305926442146,0.2625463902950287
2.341182861328125,-0.2385310716887936,-0.6811525642715394,-0.4310702805966138,-0.0148404724895954,-0.112702801823616,0.2298706769943237
2.36123486328125,-0.272783908293955,-0.5509319009043276,-1.0205167672038078,0.0899669304490089,-0.0501355901360511,0.2182222753763198
2.38128759765625,0.3369133026488125,-0.2630240367040038,-0.8875164099901914,0.1159333512187004,0.10500368475914,0.336161345243454
2.4013408203125,0.3712756640430539,-0.2764646791659295,-0.6211725812137127,-0.0027976059354841,0.1954497396945953,0.4446636438369751
2.421393798828125,-0.0165178214175626,-0.4217965485557913,-1.2019605450689792,-0.0111998710781335,0.1195173040032386,0.4113847613334656
2.44144580078125,-0.095849862938188,-0.320133871152997,-1.484412628081441,0.002582887886092,0.0664042830467224,0.3299984633922577
2.46149853515625,0.2512546519225463,-0.14430471829921,-0.8342138588696718,-0.1308806389570236,0.0995874255895614,0.37494757771492
2.4815517578125,0.1954146912788972,0.0747711633458733,-0.8727180693089962,-0.1903430819511413,0.0607468038797378,0.4872902929782867
2.501603759765625,-0.1707752669977024,0.0765774821154773,-0.9780863232314586,-0.1963608860969543,-0.0149469533935189,0.4945358037948608
2.52165673828125,-0.2935586199710145,0.2028138981521129,-1.1564467481285332,-0.1704388260841369,-0.0020865688566118,0.4775867164134979
2.541709716796875,-0.291140745174326,0.3249460937403142,-1.263476213261485,-0.0808100923895835,0.0498709455132484,0.4600825309753418
2.5617626953125,-0.3370117945872247,0.3912577640376984,-0.788861974492669,-0.010564062744379,0.1514123529195785,0.4357962310314178
2.581814697265625,0.0084998981241136,0.591210573670268,-0.0454220270037651,0.0350795723497867,0.2000357061624527,0.5035697221755981
2.60186767578125,0.0720018082303926,0.7015247595623135,0.4784487023651599,0.1277151703834533,0.1327313482761383,0.572374165058136
2.621920654296875,-0.007769793751277,0.6372624230101704,1.0858055241942406,0.1295203268527984,-0.0087218973785638,0.5751741528511047
2.6419736328125,-0.1227075295244343,0.4919526193216443,1.2901841874450444,0.0376389436423778,-0.1284311115741729,0.5060197114944458
2.66202587890625,-0.2011117338767275,0.4396228587560355,0.8861199871957302,-0.049248918890953,-0.2082457840442657,0.3977391719818115
2.68207861328125,-0.3257929198279977,0.5024199450612068,0.2580909642159938,-0.0688105970621109,-0.2634015679359436,0.2666080594062805
2.702131591796875,-0.1496167801674455,0.5851160561874509,-0.3894453077882528,-0.0525574125349521,-0.2380825579166412,0.179434597492218
2.722184814453125,0.0545286223167553,0.5568211050733923,-0.7515151173949242,-0.0304780285805463,-0.1539300233125686,0.0979968085885047
2.74223681640625,0.2671998610839247,0.5561224552847445,-0.7581535324960946,-0.018998097628355,-0.0005275337025523,0.0352944508194923
2.76228955078125,0.5048203937990591,0.7961994777739048,-0.4291542178422212,0.0069376388564705,0.21704763174057,0.0611252263188362
2.7823427734375,0.481801812185347,0.7052931721851229,0.2803320221185684,0.0382182970643043,0.3101842999458313,0.076364941895008
2.802394775390625,0.5208714014224708,0.5868823352076112,0.9010895927906036,0.0430491417646408,0.2025405913591385,0.0509784929454326
2.822447509765625,0.7887932931706308,0.5034276607990265,1.348930975446105,-0.0443266294896602,0.0710349231958389,0.0801980048418045
2.8425,0.7442603970263153,0.562284338915348,1.1396429128438237,-0.1355251371860504,0.077203556895256,0.1351543664932251
2.862552978515625,0.5787244554542005,0.4177177548095583,0.6346721142560243,-0.1282965838909149,0.0631112977862358,0.1604235768318176
2.88260498046875,0.3457062654353678,0.1946405285686254,0.6189408766388893,-0.1209225803613662,-0.0223943814635276,0.1307162940502166
2.902657958984375,0.3586081979107111,0.0752816701512783,0.5688344912111759,-0.1501924842596054,-0.0423613041639328,0.0998064801096916
2.9227109375,0.4797605521487071,0.047075493299216,0.234421919336915,-0.1350096017122268,0.0192025359719991,0.0847732573747634
2.942763916015625,0.3757882460966706,-0.0454299180492758,0.2122141791820526,-0.0939906165003776,0.0503192692995071,0.0602195262908935
2.96281591796875,0.5767524247288703,-0.1239016894787549,0.485414449724555,-0.0791967213153839,-0.0180593896657228,0.0634640306234359
2.982868896484375,0.5554036760235205,-0.1797964490495622,0.2945587003916501,-0.0370230302214622,-0.0493147671222686,0.0573170408606529
3.002921875,0.3959970675192773,-0.2318685085270553,0.4536930312931537,-0.0561528876423835,-0.0053535094484686,0.0345367453992366
3.022973876953125,0.0500012993517331,-0.2825358888383955,0.4048825308948755,-0.0608968771994113,-0.0135206300765275,-0.0472347252070903
3.043027099609375,0.0717137485366314,-0.3013235914167017,0.5103285262286663,-0.0843999609351158,-0.1211805567145347,-0.1387919187545776
3.063079833984375,0.2508914811659604,-0.2035687351074069,0.2773269950836897,-0.131947249174118,-0.1890872716903686,-0.1882182955741882
3.0831328125,-0.0198090541158337,-0.2268712847616523,-0.18530688303411,-0.1567194461822509,-0.2104460895061493,-0.2787186503410339
3.10318505859375,-0.2185867098886519,-0.2392025777421891,-0.5684709185957908,-0.1689867824316024,-0.1722814887762069,-0.4000748693943023
3.123238037109375,0.1291093776570633,-0.1521856077421456,-0.8349626314103603,-0.177946999669075,-0.1286649256944656,-0.4413179159164428
3.143290771484375,0.345286286457628,-0.1515535203836858,-1.0799918694794175,-0.1656942367553711,-0.1087754666805267,-0.4193373322486877
3.163343994140625,-0.0259214999809861,-0.2735647930059582,-1.0787900924742222,-0.1742662787437439,-0.1521082520484924,-0.4624181091785431
3.18339599609375,-0.4136889011522754,-0.3644407034564763,-1.1150485698133707,-0.2181612104177475,-0.1508956849575042,-0.5920822024345398
3.203448974609375,-0.22079923483897,-0.3294694894488901,-1.2169658064991236,-0.253703773021698,-0.1107185930013656,-0.6999405026435852
3.223501953125,0.1943723791517317,-0.2713949016209692,-1.3881570704191923,-0.2275796830654144,-0.0698309540748596,-0.717128574848175
3.243553955078125,0.466483356620185,-0.270916251258552,-1.5204337895333766,-0.1250287592411041,-0.005822486244142,-0.7037494778633118
3.26360693359375,0.6691610977046192,-0.2986431201610714,-1.060440196791291,-0.0373577736318111,0.0469402261078357,-0.6468192934989929
3.283659912109375,0.8520274557188153,-0.1891904464691877,-0.8315057689547538,0.0869131982326507,0.0427737571299076,-0.5511717796325684
3.303712890625,0.7753598111018538,0.0249516320355236,-0.4142968404501676,0.1958106011152267,0.0995112508535385,-0.4119997024536133
3.323764892578125,0.4835866863081231,0.0748498546052724,0.1510702669113874,0.2558425068855285,0.1095956414937973,-0.3340691924095154
3.343818115234375,0.3047995238989591,0.2639173322819173,0.6186264038622379,0.2886796593666076,0.0916157886385917,-0.2498026490211486
3.363870849609375,-0.0174018742430955,0.3821976747475564,0.8961164805531501,0.2704135477542877,0.0577507764101028,-0.2200559228658676
3.3839228515625,-0.3407611737160012,0.439007503336668,1.1328916850179434,0.1488749980926513,0.0634569153189659,-0.2453978806734085
3.40397607421875,-0.2992932181002572,0.5799243327632546,0.6080062256485224,0.0642513111233711,0.1251599192619323,-0.2520106434822082
3.424029052734375,0.137724353528209,0.747975545091927,0.0877367356419563,0.0506068468093872,0.1699595153331756,-0.1459688693284988
3.4440810546875,0.2502790666223503,0.7184061170626431,-0.0539279895424842,0.0909527689218521,0.1322138458490371,-0.0016109819989651
3.464134033203125,0.1048481025058776,0.537818809896335,0.1279249536454677,0.1216398403048515,0.0772110596299171,0.0996671691536903
3.48418701171875,-0.0788566060286015,0.3664864570051431,0.5002823485106229,0.1193070039153099,0.1263875216245651,0.1668005734682083
3.50423974609375,-0.1551073769403621,0.2178643138982355,0.8648597570240497,0.1125952079892158,0.211746484041214,0.2255659848451614
3.524291748046875,-0.2061121542462147,0.1074945253614336,1.222925591686368,0.1093092337250709,0.1745694279670715,0.2698497474193573
3.544344970703125,-0.5109845789846033,-0.0700658351991325,1.6257599578797817,0.0479086898267269,0.0341798923909664,0.2365549206733703
3.56439794921875,-0.8410073184020816,-0.1858108870334923,1.4184645303994416,-0.0485898293554782,0.029897715896368,0.1361781954765319
3.584449951171875,-0.5408334815423935,-0.0745564976818859,0.9894172800630332,-0.1175372451543808,0.1047907695174217,0.1102299839258194
3.6045029296875,-0.3849126327946782,-0.1124559471610933,0.8271113333880901,-0.166882649064064,0.0602977015078067,0.1128313168883323
3.624555908203125,-0.5559700046693906,-0.1433624690130353,0.6956260569125413,-0.2068635374307632,0.0228453613817691,0.0837053060531616
3.64460791015625,-0.4637624437563121,-0.1388263599533587,0.1540466523736715,-0.1814099848270416,0.0059067071415483,0.0521930679678916
3.6646611328125,-0.2682049464732408,-0.1936854928661137,0.1176589956969022,-0.1781506985425949,0.0245942585170269,0.0844491496682167
3.6847138671875,-0.0712076621780171,-0.3025860856331884,0.0218722245901823,-0.1335334181785583,0.0914192646741867,0.1656127125024795
3.704765869140625,-0.4042500051449984,-0.6292009163033216,0.2830208228111266,-0.0861902609467506,0.164515271782875,0.1701852083206176
3.724819091796875,-0.3458438107425347,-0.8761378146246075,0.9742775785982608,-0.1258950978517532,0.1826132088899612,0.1822030395269394
3.744871826171875,-0.5305421334242448,-1.0238835402231663,0.9169628692269324,-0.1125793009996414,0.1346267759799957,0.1542853862047195
3.764923828125,-0.674969930113852,-1.0599513172958046,0.7367886729061603,-0.0783382803201675,0.1704328805208206,0.08470369130373
3.78497705078125,-0.1804352584097534,-0.9946448054529726,1.0120330164968967,-0.1498291492462158,0.2346549332141876,0.1021758019924163
3.805030029296875,0.1855600540775805,-0.9211676274403928,0.5114888021796942,-0.1238217055797576,0.1146789565682411,0.187340423464775
3.825082763671875,0.296389605613239,-0.884292114181444,-0.028183891955018,-0.0628978013992309,-0.0766494423151016,0.2897441983222961
3.845135498046875,0.1516824439929798,-0.821599438098818,-0.5900847845107317,0.0078662475571036,-0.2163833081722259,0.3652960658073425
3.8651884765625,-0.0823200443554669,-0.7893097182601689,-0.9203700473219156,0.0456802770495414,-0.1943940073251724,0.3554063439369201
3.885241455078125,-0.2177907372053712,-0.663441258753091,-0.9585340660214424,0.0033163477201014,0.0388992689549922,0.3217037320137024
3.90529345703125,-0.1038225953830406,-0.5944813389692455,-0.7370610601067542,-0.0547541268169879,0.2008168846368789,0.3184836804866791
3.925346435546875,-0.4273528309760614,-0.7275880791667848,-0.2609153739869594,-0.2016323208808899,0.1354352980852127,0.2371918261051178
3.9453994140625,-0.8255772556886076,-0.7448091900154947,-0.8801526032239199,-0.2949345409870147,0.0243266113102436,0.0777273327112197
3.96545166015625,-0.6806522135339677,-0.5553397074092179,-1.6645540911763903,-0.3133234977722168,0.0133444257080554,-0.0564985796809196
3.98550439453125,-0.4130316062873229,-0.2218739879310131,-1.995586372962594,-0.3272071182727813,0.1516983807086944,-0.1198985576629638
4.005557373046875,0.2873857765549794,0.0607166267693042,-1.9305863697856664,-0.2742822468280792,0.1867766976356506,-0.0545511096715927
4.025609619140625,0.6494539421938359,0.230313314974308,-1.547393692651391,-0.168936550617218,0.0993453338742256,0.0769021436572074
4.04566259765625,0.6011258550176397,0.3073044559245929,-1.298849724459648,-0.0795176476240158,0.0916306227445602,0.1658993363380432
4.06571533203125,0.7785727817989886,0.491721733175218,-0.808582574006915,-0.0276042912155389,0.1759615987539291,0.2964364886283874
4.085767578125,0.709491208396852,0.5558045849746093,-0.3791103762567043,0.0577656738460063,0.1609736680984497,0.4149978160858154
4.105820556640625,0.5478163992322981,0.6394247156105936,0.2974047374725341,0.100688949227333,0.0442207865417003,0.5011239051818848
4.125873291015625,0.4921070061657577,0.6878514043230562,0.5878776298552751,0.0942263156175613,-0.0501073822379112,0.5642207264900208
4.145925537109375,0.5499017541389912,0.8426180415343493,0.4256996934741735,0.1354242116212844,-0.0724825039505958,0.6341818571090698
4.165978515625,0.3582170797012746,0.9442433095362036,0.5179208810538053,0.1516154110431671,-0.0727570876479148,0.6589402556419373
4.186030517578125,0.1908629827912897,1.0270756142627446,0.6454980441749095,0.0796347707509994,-0.0934968665242195,0.640305757522583
4.20608349609375,-0.0223758632633835,1.1400616497125475,0.2272235322654247,0.0301964748650789,-0.1507240831851959,0.5814641714096069
4.226136474609375,0.0202992761850357,1.2733803521603344,-0.3739391110986471,0.0400443859398365,-0.1980862617492675,0.548222541809082
4.246189453125,0.2538962890051305,1.3977017283558846,-0.8452215750962495,0.1012070700526237,-0.1025708317756652,0.5593899488449097
4.266241455078125,0.4140631412921473,1.374436588102579,-0.531772880795598,0.1508281528949737,0.0329995155334472,0.579910933971405
4.286294677734375,0.526533409239538,1.3120005901947618,0.1933551649332046,0.1440797597169876,0.081326238811016,0.6283484697341919
4.30634619140625,0.4604011506296694,1.1914240996159613,0.7700549826920032,0.1280085891485214,0.0136894658207893,0.6708884835243225
4.3263994140625,0.3676594463072717,1.088664859148115,0.9686088853120804,0.1366914808750152,-0.0861117243766784,0.696965754032135
4.34645263671875,0.1994415356421843,0.8451581544712186,1.2399392703294754,0.081789955496788,-0.1105770170688629,0.6499931216239929
4.36650439453125,0.1269905954048037,0.6865540579888969,1.2958593104720115,-0.015489581041038,-0.0680917203426361,0.566423237323761
4.38655712890625,0.3048792746042832,0.5476625238448382,1.1831214045643803,-0.1028122305870056,-0.0655808970332145,0.5221604108810425
4.406610595703125,0.4945156747426837,0.4558274129733443,0.605550649189949,-0.0961623638868331,-0.1082963421940803,0.5140324831008911
4.426662353515625,0.6449913367617875,0.423479021750018,-0.0086707977116107,0.0125227402895689,-0.111561931669712,0.5510004162788391
4.446715576171875,0.7351178901497274,0.3083830814741551,-0.0140612585783004,0.0945694968104362,-0.0906372666358947,0.5857197046279907
4.4667685546875,0.4842635991889983,0.0688365125998854,0.5259083726763725,0.0547394230961799,-0.0837030559778213,0.5468730926513672
4.4868203125,0.181465131180454,-0.0303798676293343,0.3301403013825416,0.0654036104679107,-0.0943654328584671,0.4624593555927276
4.506873291015625,0.2541679820859804,0.0225876063179224,0.2901157495081424,0.0809234976768493,-0.0893255546689033,0.4287977218627929
4.52692529296875,0.2458592774187214,-0.0407117304209619,0.0012421090155839,0.1223369091749191,-0.1072169691324234,0.4040445387363434
4.546978271484375,-0.0867092192251235,-0.1584231138922274,0.017385434564948,0.1375171542167663,-0.1710695624351501,0.3121229112148285
4.56703125,-0.0431418436447158,-0.1458398189119994,-0.0050192894667387,0.1268085390329361,-0.1879485994577407,0.2229813486337661
4.587083251953125,-0.0006763283589854,-0.1499851020231843,-0.2237532258063554,0.1352074742317199,-0.1450287848711013,0.1385893821716308
4.607136474609375,0.0727309627551585,-0.0825742383122444,0.0979600234925746,0.0757583305239677,-0.0313289165496826,0.0979345589876174
4.627189208984375,0.3055235638571903,-0.0648264001756906,0.0224146609038114,0.0546007417142391,-0.0281930938363075,0.0861557722091674
4.6472412109375,0.3098382487185299,-0.1745379439994692,-0.2542535780102014,0.0800314247608184,-0.1764181852340698,0.0579857639968395
4.66729443359375,0.4107098122762516,-0.261666265419498,-0.243461550360918,0.0272392947226762,-0.2373378276824951,0.0420430339872837
4.687347412109375,0.3608440672039985,-0.3578323912326246,-0.6303098273932933,0.0088668195530772,-0.22853983938694,0.0199612900614738
4.7073994140625,0.4829570466350764,-0.2777452935609966,-0.9185498461574316,0.0757609456777572,-0.2010605335235595,0.0464959144592285
4.727452392578125,0.3679495883602648,-0.2901379613399505,-0.7028624379068613,0.1048698872327804,-0.1898157149553299,0.0786783099174499
4.74750439453125,0.031473544617556,-0.3798506732299924,-0.3923363530546426,0.061638381332159,-0.2390606105327606,0.0668332353234291
4.767557373046875,-0.4181410217229276,-0.4523280996154993,-0.557677721902728,0.0455828048288822,-0.2577714920043945,-0.0524192117154598
4.787610107421875,-0.455194814158231,-0.4477062119685113,-0.0716717360258102,-0.0723235756158828,-0.1881963163614273,-0.1852542459964752
4.807662353515625,-0.3235213216342031,-0.3645821577537804,0.0836573573738336,-0.1994116753339767,-0.1676848828792572,-0.3086540102958679
4.82771533203125,-0.2620330529052764,-0.3195406545002013,-0.2511339846849441,-0.2870062887668609,-0.1764864772558212,-0.4419736862182617
4.84776708984375,0.1426173132015392,-0.2180320716805756,-0.9696715461075306,-0.3091428875923157,-0.1072844788432121,-0.5259816646575928
4.867820068359375,0.6248918939977884,0.1609285208418965,-1.934239631596208,-0.1354284882545471,0.1315463632345199,-0.4875478148460388
4.887872802734375,1.081796507748589,0.5494901776634157,-1.836822628939152,0.1199406757950782,0.4212354719638824,-0.3265405297279358
4.907925048828125,1.2026285074584184,0.6754588826745748,-0.3832219032287597,0.2443593442440033,0.4959098398685455,-0.1317417919635772
4.92797802734375,1.203200169866532,0.7379576436202973,0.8454659052461385,0.2784050405025482,0.2929123640060425,0.0723915249109268
4.948031005859375,0.846612517997995,0.8932633561443537,1.2653326547831296,0.3014770448207855,0.1021247804164886,0.2377525269985199
4.968083251953125,0.152607157622464,0.9776841721713544,1.190285304844379,0.3108531236648559,0.1315313279628753,0.265163779258728
4.988135986328125,-0.0299120674544945,0.900249634835124,1.6421166339188813,0.1805529594421386,0.2256353050470352,0.2371352910995483
5.00818798828125,0.1158518366770818,0.9163676067475228,1.5774340261280535,0.0537057071924209,0.2274859696626663,0.2325126677751541
5.028240966796875,0.346412294812873,0.8836153839636594,1.259449441963434,-0.0408042147755622,0.1386766135692596,0.2525124251842499
5.0482939453125,0.7296703653335571,0.9209317728579044,0.951402898967266,-0.1227237954735755,0.038337904959917,0.3352147042751312
5.068345947265625,0.9905359088294208,0.8737864291928708,0.2569692667096853,-0.1256546378135681,0.0615789294242858,0.4768722355365753
5.08839892578125,1.242687838385254,0.6887986220452934,-0.1094979010730981,-0.0711849257349968,0.1676109135150909,0.6621783971786499
5.108451171875,1.1214683737277984,0.3800970492064953,0.2618564542293548,-0.0381227880716323,0.1860963851213455,0.8169079422950745
5.128504150390625,1.0668871809735894,0.2018171421997249,0.7797446020573378,-0.0333393067121505,0.1059043779969215,0.9738633632659912
5.14855615234375,0.7530152928248047,0.0454933386743068,0.9002391134411096,-0.014453561976552,-0.0260847564786672,1.068995475769043
5.168609130859375,0.3518332604156807,-0.1753047636535018,1.0939718795150517,-0.0551616288721561,-0.1022628769278526,1.080488204956055
5.188662109375,0.1300924338776618,-0.3604857552856206,1.0686439615130423,-0.1390259116888046,-0.1233948841691017,1.0482360124588013
5.208714111328125,-0.0331243805645033,-0.4711398406565189,0.6603741262674331,-0.2085571438074112,-0.0895836278796196,0.996078372001648
5.22876708984375,-0.3000543386658653,-0.6258051363851874,0.1773369270682334,-0.221288576722145,-0.0030742750968784,0.8682851195335388
5.248819091796875,-0.0324374851457308,-0.6169803902208805,0.0140010528236627,-0.2164435237646103,0.1089900881052017,0.7993548512458801
5.2688720703125,0.361240373045206,-0.611766747225821,-0.0199801272332668,-0.1904396116733551,0.1436546295881271,0.8261760473251343
5.288925048828125,0.3752774470303207,-0.6659208006091415,-0.046673488369584,-0.1255929917097091,0.1231123059988021,0.84479159116745
5.308977294921875,0.3960192428184673,-0.7424459680154919,0.3654828329205513,-0.1301753222942352,0.1494128853082656,0.8563145995140076
5.329030029296875,0.4426633954957127,-0.8001673584915697,0.3468383382052183,-0.1204555332660675,0.1791864931583404,0.8687052130699158
5.34908203125,0.5730724941071123,-0.7658484709128737,0.2731757206231355,-0.0644688531756401,0.1839514970779419,0.9329439997673036
5.36913525390625,0.636404856332764,-0.7882081867590546,0.3759568806618452,-0.0009329442400485,0.1354618966579437,1.0022926330566406
5.389188232421875,0.3711191217744722,-0.9206312555413692,0.591954670035839,-0.0049820141866803,0.1497460156679153,0.9878085255622864
5.409240234375,0.4666877931511029,-0.8185296752646565,0.6474877566874027,-0.0461025349795818,0.2034759074449539,0.9889152646064758
5.42929296875,0.6448204371742904,-0.705485918278247,0.2570662973433733,-0.0129580842331051,0.161743551492691,1.036694884300232
5.449344970703125,0.557204989824444,-0.6026187604565173,0.0690320351719856,0.0189130119979381,0.1099500358104705,1.083075761795044
5.469398193359375,0.4515496625889092,-0.4768425823427736,-0.3269412130802869,0.0910196974873542,0.0700289830565452,1.1262924671173096
5.489449951171875,0.2306787690195255,-0.4446935861490667,-0.5101601839244365,0.1463233381509781,0.0724763050675392,1.102675437927246
5.5095029296875,-0.0943608664894476,-0.4569055635988712,-0.2141097836703062,0.0369221530854702,0.2871371805667877,1.0077626705169678
5.52955615234375,-0.1258253327514044,-0.4431171306125819,-0.3576198444604873,-0.080576553940773,0.3635095953941345,0.8841989040374756
5.54960791015625,-0.1999986580682918,-0.4668271650891751,-0.7876403237432241,-0.1240701451897621,0.2333399951457977,0.7415207624435425
5.5696611328125,-0.0132857441611587,-0.3521408285275101,-1.4314876781016588,-0.1130150333046913,0.1011657938361167,0.6233932971954346
5.589713134765625,0.3005097908157855,0.0446308035608381,-1.6474182474583383,-0.1341650038957595,0.1446108222007751,0.6007283926010132
5.609765869140625,0.4522380101792514,0.2445556292079388,-1.7916016774654386,-0.1295558959245681,0.2269740998744964,0.6026259064674377
5.62981787109375,0.3997705216433853,0.3107898503549396,-1.5968658718287945,-0.1116155460476875,0.2505066692829132,0.5983819961547852
5.64987109375,0.4830403410043567,0.3574916880361735,-1.562783569484949,-0.0860224217176437,0.2356459498405456,0.6103085279464722
5.669923828125,0.8282776006884872,0.5615421422459185,-1.266215867358446,-0.0426589883863925,0.2192518413066864,0.7051679491996765
5.689975830078125,1.1367781710624694,0.7518733562480658,-0.8090279796868562,0.0075154202058911,0.1672043204307556,0.8761528134346008
5.710029052734375,1.1567777336485685,0.9414883848048746,-0.475369441050291,0.1191628724336624,0.1119984090328216,1.0471333265304563
5.7300810546875,1.0794631694301962,1.0271745445925742,0.1675339104562997,0.2093393504619598,0.0590729191899299,1.1878334283828735
5.750134033203125,1.0398362385712565,1.116407290945947,1.0967518656224011,0.1720798164606094,0.0094310762360692,1.2912241220474243
5.77018603515625,0.7765672871954739,1.0785833178557456,1.3566530941307544,0.1362544447183609,-0.0889057591557502,1.314329743385315
5.790239013671875,0.5442716027649119,0.9977964744169264,1.3608809409588574,0.1000834554433822,-0.1910616010427475,1.2595279216766355
5.810291015625,0.5214910676907748,0.9655971362754702,1.3263012104868888,-0.0116658983752131,-0.2188628613948822,1.1630669832229614
5.830343994140625,0.4730794669495895,1.0696407174654303,0.6834475433409214,-0.0876927003264427,-0.1799056380987167,1.0456866025924685
5.85039599609375,0.8190215504348277,1.2307960328005254,0.0635538960218429,-0.1187802106142044,-0.1135278269648552,1.0017621517181396
5.870448974609375,1.2495815434217452,1.288890640503168,-0.2545943542718887,-0.1225786507129669,-0.0365822724997997,1.0233689546585083
5.890501953125,1.482899593169987,1.2670771603628992,-0.2199789679646492,-0.097016654908657,-0.0605893358588218,1.0627681016921997
5.910553955078125,1.4799788834176957,1.2385142059624197,-0.0807727418482303,-0.0590817146003246,-0.0471429973840713,1.0744744539260864
5.930607177734375,1.642556340510398,1.2611724663637578,0.161280110758543,-0.0483422018587589,-0.00084795570001,1.117334246635437
5.9506591796875,1.4790369263924656,1.1025864169947803,0.4170446778535843,-0.0573723390698432,0.0180889144539833,1.11462140083313
5.9707119140625,1.313586544211954,0.921154110371694,0.4197556903779506,-0.0561340451240539,0.0122559107840061,1.0810933113098145
5.990763916015625,1.234942631085962,0.7206474662486463,0.6944839011400937,-0.1051208898425102,0.0113521348685026,1.0129328966140747
6.010817138671875,1.04024649987258,0.6016611674707383,0.794983087721467,-0.1661393940448761,0.0115693807601928,0.9071378707885742
6.030869140625,0.8435298956822603,0.4026811483930796,0.6649497636198997,-0.2121968567371368,0.0280159786343574,0.7727690935134888
6.050922119140625,1.3047259230166672,0.4665644224997609,0.3544564119935035,-0.194320410490036,0.0215203650295734,0.7870782613754272
6.070973876953125,1.40799121331051,0.3856905583646148,0.1145621987253427,-0.1055822744965553,-0.0833799764513969,0.8439458012580872
6.091027099609375,0.8238450981337576,0.0995619787964969,0.1373883630394935,-0.0360469669103622,-0.1667979061603546,0.7980545163154602
6.111078857421875,0.543225673908554,-0.067267436652258,0.2332218958973884,-0.0209740251302719,-0.1569622606039047,0.709602952003479
6.131132080078125,0.4934365742690861,-0.0651673956330865,0.1602770711958408,0.0250824633985757,-0.1174995526671409,0.6365615129470825
6.15118505859375,0.327738354807347,-0.0519675761897116,0.0285293443918228,0.0907681211829185,-0.0677502080798149,0.5443097352981567
6.17123681640625,0.1314744993532076,-0.2889754203666001,0.359461088413,0.0391715727746486,-0.0507897995412349,0.3915614187717438
6.1912900390625,0.1180143850058317,-0.3254495132178068,-0.0107493575513362,0.0263435021042823,-0.0755993351340293,0.253081738948822
6.211342041015625,0.4020759490415453,-0.1407741330202669,-0.5388777443647385,0.1148223727941513,-0.1682945638895034,0.2126356363296508
6.23139501953125,0.4449987431081011,-0.1892675302933901,-0.3076455609798431,0.0931336805224418,-0.2256116420030594,0.1667737662792205
6.25144677734375,-0.0994619159555062,-0.3229999281086027,-0.6061193889886141,0.0090845273807644,-0.220923364162445,-0.0054490668699145
6.271499755859375,-0.710668873874098,-0.2244496105726808,-0.8891559938907623,-0.1019149273633956,-0.2199805527925491,-0.29280686378479
6.291552001953125,-0.8326381339855492,0.1136049710657447,-0.8181669794321059,-0.2517753839492798,-0.2339390516281128,-0.6028937697410583
6.31160498046875,-0.2152354997646063,0.0899851721558719,-0.6447323204994201,-0.5938515663146973,-0.1715906262397766,-0.8106501698493958
6.331656982421875,0.660980567727983,0.2011838857974857,-2.572790633112192,-0.6428159475326538,0.0247761290520429,-0.7974900007247925
6.3517099609375,1.9902423815861343,0.5062982477992772,-4.392303230810165,-0.1581890434026718,0.1166485846042633,-0.428483784198761
6.371761962890625,2.0932775163859128,0.4805490356452763,-3.289080123347044,0.299590915441513,0.1885326206684112,0.0147406533360481
6.39181494140625,0.99240710952878,0.1784139817152172,-0.9370558091849088,0.528727114200592,0.2481961101293563,0.2304436713457107
6.411866943359375,-0.1140529705615714,0.1703445108976215,1.1041098271697758,0.56475430727005,0.2692779302597046,0.2513817548751831
6.431919921875,-0.7942967128925025,0.1199384849362075,2.397467383953929,0.4300514161586761,0.2259851396083831,0.1456646174192428
6.451971923828125,-1.173567248146981,0.2182844390064477,2.440280105242133,0.2699795067310333,0.1680901944637298,0.0187343228608369
6.47202490234375,-1.081709925443679,0.3004813684388995,1.5343763901680707,0.2028844952583313,0.0595858916640281,-0.1008273810148239
6.492076904296875,-0.911448124393448,0.604345949575305,0.8310866667598485,0.1586322337388992,0.0931278616189956,-0.1625430881977081
6.512130126953125,-0.7849998922370374,0.8449502108089625,0.530060816180706,0.0635120049118995,0.2648085355758667,-0.2010858505964279
6.53218212890625,-0.5087318316217512,0.979646046828851,0.3359615548819303,-0.0568065121769905,0.4166517555713653,-0.1754664182662964
6.55223486328125,-0.2979273913734592,0.9973451504528522,-0.2220844158113002,-0.0506437495350837,0.4214856922626495,-0.1173782721161842
6.572287109375,0.2009007580071687,0.9779378546714782,-0.2194815398365259,-0.0026712445542216,0.331233412027359,0.034298401325941
6.592340087890625,0.4255755191052332,0.9661760321419686,-0.060483987057209,0.0900434553623199,0.1962361633777618,0.2426948547363281
6.61239208984375,0.2319330616632476,0.81566266846098,0.3654921852707862,0.1648638993501663,0.0829091370105743,0.4153616726398468
6.632445068359375,-0.103426271275524,0.6474510048735886,0.9024433454871176,0.153810441493988,0.0601431019604206,0.5078495144844055
6.6524970703125,-0.3771196773635223,0.3721699825342744,1.016349710652232,0.1227327659726142,0.016043160110712,0.5216839909553528
6.672550048828125,-0.6693432493384928,0.2298077035397291,0.8796645274460315,0.1056936532258987,0.012492686510086,0.495401531457901
6.692601806640625,-0.7841849225923418,0.1638564640525728,0.8113239816695451,0.0689543783664703,0.0842471495270729,0.448197454214096
6.7126552734375,-0.8346570725925266,-0.0411578667532652,0.7805196780830621,0.0337235145270824,0.0848061665892601,0.3718910813331604
6.73270703125,-0.820657481073588,-0.2480716014396399,0.7752081276714802,0.0076743536628782,0.0367903485894203,0.296484500169754
6.752759765625,-0.4924563310600817,-0.3684010584548115,0.7273498134315013,-0.0103571265935897,-0.0001448462717235,0.29013392329216
6.772811767578125,-0.3057065922738984,-0.4697816309805959,0.5324608630597591,0.0071615856140851,0.0174289718270301,0.2931466102600097
6.792864990234375,-0.3728190940927713,-0.6280695011205971,0.5549819069474935,0.0319399014115333,0.0966802909970283,0.2537643015384674
6.8129169921875,-0.2852146430609747,-0.7061538076024502,0.8034972335666417,0.0056297816336154,0.1938519179821014,0.2273816615343094
6.8329697265625,0.006270878696721,-0.7379662653181701,0.8103098361909389,0.0191236436367034,0.2005553394556045,0.2599024176597595
6.853021728515625,-0.0090230634816922,-0.8675314604513347,0.7843728463798761,0.0672354027628898,0.1065010726451873,0.2975132465362549
6.87307470703125,-0.275574160066992,-1.0656410533700138,0.980633085104823,0.0195470694452524,0.1118540614843368,0.2773128747940063
6.893126708984375,-0.3058140347037464,-1.058986271655932,0.6836088713824748,0.0025883114431053,0.1373733729124069,0.2312391251325607
6.913179931640625,-0.2792525928514078,-1.0121358192842451,0.5585615189999341,-0.0116567648947238,0.1323675811290741,0.1912896633148193
6.93323193359375,-0.1842853944992646,-0.9574787848148496,0.4915460843473672,-0.0916899293661117,0.1050460115075111,0.1767550259828567
6.95328466796875,-0.2560324425172992,-0.9690788409113884,-0.2695364873379469,-0.08050287514925,0.0207984894514083,0.1627256274223327
6.973336669921875,-0.2046639099329709,-0.8817058240152895,-0.7091665064871311,-0.0388824492692947,-0.0234021842479705,0.1560488045215606
6.993389892578125,-0.0535433193401433,-0.8130624228347092,-0.7569231139183044,-0.0541404038667678,0.0717835649847984,0.1658296883106231
7.01344189453125,-0.0441360971127636,-0.7586627971924841,-0.9189560888707636,-0.0056110918521881,0.2167595773935318,0.175028383731842
7.03349462890625,0.0357010626520961,-0.6747935506336391,-0.5793968017578125,0.0546793043613433,0.3209182918071747,0.2074660509824752
7.053546630859375,0.0840294786218553,-0.7329127082556486,0.1811743132740259,-0.0361939407885074,0.2703563570976257,0.2456212192773819
7.073599853515625,0.1267599649867042,-0.651214522125572,-0.1452975287288427,-0.108389213681221,0.1097181364893913,0.2898352444171905
7.09365185546875,-0.0261817948849871,-0.5507299485914409,-1.0521236193448305,-0.0759118273854255,-0.0710189789533615,0.3015417754650116
7.113704833984375,-0.250922862684913,-0.4724356526207178,-1.6324059717655182,-0.0505263842642307,-0.2018776088953018,0.2588135898113251
7.133757080078125,-0.1876799688410013,-0.1790993336308747,-2.162062298798561,0.010644843801856,-0.2419486194849014,0.2499201893806457
7.153809814453125,0.0059618310138583,0.1962991824958473,-2.612166950210929,0.1315189599990844,-0.2035935968160629,0.2989171743392944
7.17386181640625,-0.1147063016374595,0.4730439207121729,-2.4191169057041404,0.2066144049167633,-0.0535533502697944,0.3551110327243805
7.19391357421875,-0.2923625785868615,0.5068531052030623,-1.7578244955480098,0.252735823392868,0.0465167947113513,0.34131720662117
7.213966796875,-0.301763170144055,0.6434341704476625,-0.9872849442094564,0.3100623488426208,0.137066513299942,0.3092685639858246
7.234018798828125,-0.0974743954000994,0.7225721507009119,0.0995873324334621,0.3288030624389648,0.1880490332841873,0.3060111999511719
7.254071533203125,0.1953770992148667,0.917761910650134,0.8960603664517403,0.3463079929351806,0.1405297666788101,0.3643451631069183
7.27412353515625,0.0869008693397045,0.971000164362788,1.471737855425477,0.3199094831943512,0.0673587322235107,0.3653783798217773
7.2941767578125,0.113149665046297,1.007029655251652,1.771962326493859,0.2405323237180709,-0.0011420007795095,0.3529574275016784
7.314228759765625,0.2452673211412504,1.0504147696003316,1.7846295003652572,0.1416971534490585,-0.0894569158554077,0.3347852528095245
7.33428173828125,0.1502527217171154,1.0563584804356096,1.4877689527720213,0.0577077679336071,-0.168485626578331,0.2625600397586822
7.354333740234375,0.1739027879010886,1.0233867696821688,0.870386996012926,-0.0189510397613048,-0.1636826246976852,0.1528303325176239
7.37438671875,0.4661993155144154,1.121218344489485,0.2018055978924036,-0.0893832370638847,-0.1355316191911697,0.1074166148900985
7.394438720703125,0.7483724354550242,1.1256070809677243,-0.68192077216506,-0.0636513531208038,-0.1515331268310547,0.1092452481389045
7.414491943359375,0.8173416345238685,1.0660280799262225,-1.173081072065234,0.0356971360743045,-0.0956608578562736,0.1314002722501754
7.4345439453125,0.7527659211736172,0.9934108797438442,-0.6291302622199059,0.0758982524275779,0.0681065469980239,0.1456600427627563
7.454595947265625,0.7473148161608726,0.9030215837664902,0.1655488741189241,0.0632584244012832,0.1695113480091095,0.1510469913482666
7.474648681640625,0.5601948923554271,0.6641016223579644,0.771284232226014,0.020424110814929,0.162954568862915,0.1092189028859138
7.49470068359375,0.6817625859286636,0.6443354301363229,0.9013619799911976,0.0215202681720256,0.104306973516941,0.1259922981262207
7.51475390625,0.7915639269277452,0.5424763533785939,0.8516431325763464,0.0457575544714927,0.0599527433514595,0.1976687312126159
7.534805908203125,0.6515401738833636,0.2585109431937337,0.911684052041173,0.0315726175904274,0.0425112508237361,0.2416914999485016
7.55485888671875,0.5456772317791357,-0.0638039252601564,0.9134042999625206,0.0204199906438589,-0.0381929166615009,0.2641936838626861
7.574910888671875,0.458474785676971,-0.2974114594742655,0.7333031688779592,0.029123967513442,-0.1445536017417907,0.2910910844802856
7.5949638671875,0.3718282564245164,-0.4257236588716506,0.2003080528110265,0.0923553630709648,-0.1995535343885421,0.3051899373531341
7.615015625,-0.0991542839115951,-0.5199800055406988,0.1398445240199566,0.1033590137958526,-0.1735656112432479,0.2346981763839721
7.635069091796875,-0.2558427103651687,-0.5321279778435826,0.0521750083953142,0.0975917056202888,-0.1155868470668792,0.1343470513820648
7.655120849609375,-0.00710289537434,-0.3837741302840411,-0.0391588749557733,0.1035477891564369,-0.0408849529922008,0.0952290296554565
7.6751728515625,0.1342122354877181,-0.3804664670407772,0.0502145219773054,0.0974591970443725,-0.0544596575200557,0.0746495351195335
7.6952255859375,0.0307626746681518,-0.3558731469236314,0.1673544622361659,0.0881706997752189,-0.1265925616025924,0.0286664646118879
7.715277587890625,-0.036089185186848,-0.2666694074690341,0.1312842009454965,0.0621331110596656,-0.1326664537191391,-0.0292368587106466
7.735330810546875,0.0836743541744071,-0.2396120353259146,0.1226870529919862,0.0024938757997006,-0.0936357825994491,-0.0771387442946434
7.7553828125,0.0073864021905697,-0.2521025374561548,0.1124035593867301,-0.0586219616234302,-0.1078778356313705,-0.1239237859845161
7.775435546875,-0.0144640489592216,-0.2173176398009061,-0.045929392004013,-0.0741926506161689,-0.1670301109552383,-0.1655444949865341
7.79548779296875,0.0820940535798668,-0.1874817428551614,-0.0601075549602508,-0.0664102137088775,-0.1920752674341201,-0.1846075654029846
7.815539794921875,0.1911807617698796,-0.2512554191075265,0.1881891604721546,-0.0933801457285881,-0.1999673992395401,-0.1993826925754547
7.835592529296875,0.2354569249404594,-0.2555256437726318,0.1659416728287935,-0.1039982810616493,-0.1913734972476959,-0.2016177475452423
7.855644775390625,0.2514939953700639,-0.1816955606691539,0.0521288311660289,-0.0895793586969375,-0.1596681475639343,-0.1799673438072204
7.87569775390625,0.2131441535085439,-0.2587698863908648,0.1598345881253481,-0.0872354283928871,-0.1391773670911789,-0.1619125753641128
7.895749755859375,-0.0644358299555256,-0.4236516749031841,0.3968488620430231,-0.1593708992004394,-0.1658366620540619,-0.2264286279678344
7.915802734375,-0.2202044290172867,-0.3753098149299621,0.1570592781931162,-0.2469248324632644,-0.246054857969284,-0.3086174130439758
7.935854736328125,-0.1281685714093036,-0.1056231054663658,-0.8868459633827209,-0.2149047702550888,-0.2864630222320556,-0.3322490453720093
7.95590673828125,-0.1727389682861045,-0.1164252161182463,-0.9339695336073636,-0.2758808732032776,-0.2444009780883789,-0.3694817721843719
7.975959716796875,-0.163690167574957,-0.1409929634027183,-1.169575109770894,-0.3398740291595459,-0.1498859673738479,-0.4630005061626434
7.996011474609375,0.1090663047228008,-0.0436247683234512,-1.1854098077625037,-0.3394589126110077,0.0052950149402022,-0.5250619649887085
8.016064697265625,0.6748449885599315,0.061565644814074,-0.8781687359303235,-0.3032243251800537,0.1420542001724243,-0.4978232681751251
8.036116455078124,1.0450282542563971,0.2240261244636029,-0.5945283199161291,-0.1997358351945877,0.1797269731760025,-0.3585672974586487
8.05616943359375,1.2619418433010576,0.2600394679352641,-0.2712877149194478,-0.0051666004583239,0.0671091526746749,-0.1666013151407241
8.0762216796875,0.8078463686868548,0.1694027730681002,0.5946054768055677,0.0825778022408485,0.0214675180613994,-0.0670253783464431
8.096273681640625,0.2695189151486382,0.1028719070620834,1.304849841657281,0.0462228693068027,0.0781031027436256,-0.071059413254261
8.116326416015625,0.007845343205519,0.1391485045798123,1.3934265352547168,-0.0019862232729792,0.076307862997055,-0.1070866137742996
8.13637841796875,-0.2322622022860683,0.1332270786415785,1.284226155823469,-0.056007158011198,-0.0007107155397534,-0.1743649542331695
8.156431640625,-0.4006741194196045,0.1539426805425435,0.9939701210618018,-0.138546422123909,-0.0454405210912227,-0.2858282029628753
8.176483642578125,-0.0384087141755968,0.2994758446581662,0.2706768895447254,-0.2301835715770721,-0.0979577600955963,-0.3101096749305725
8.19653564453125,0.1604249187013134,0.4489797390356659,-0.848383838519454,-0.232846200466156,-0.1669445484876632,-0.2416610866785049
8.216588623046874,-0.1279042213846929,0.4872723525509237,-1.7731120810508727,-0.1295206248760223,-0.1116513460874557,-0.1836633086204528
8.236640625,-0.2482817005263641,0.4235203036084771,-1.6962299169003965,-0.0151063771918416,0.1032205149531364,-0.1065850853919982
8.256693603515625,-0.3146162402426823,0.2489704499755054,-1.0812637891113757,0.1252782791852951,0.2798277735710144,-0.0606837123632431
8.27674560546875,-0.3260891993608325,0.0427972314581275,0.1880769322693347,0.1485348641872406,0.4289269745349884,-0.016536796465516
8.296798828125,-0.4194070596033707,-0.0575808860268443,1.2978835097759962,0.0701800212264061,0.4267171323299408,0.0524168461561203
8.316850830078126,-0.5665990968419239,-0.1140935583002865,1.732299593669176,0.0113729089498519,0.225270465016365,0.0844954401254654
8.33690283203125,-0.9244982331678272,-0.3640429363105446,1.8738994369238613,-0.062146782875061,-0.0522797517478466,0.0267604030668735
8.35695556640625,-1.0128045123260467,-0.2860697620529681,1.5535867020726204,-0.0995047762989997,-0.1569860428571701,0.0255190841853618
8.377007568359375,-1.182405511379987,-0.3249251240175217,0.9162409846931696,-0.1005480587482452,-0.0471298433840274,-0.0349638536572456
8.397060791015624,-0.9630065352603792,-0.476288893982768,1.0737743101388215,-0.1946230083703994,0.0645466968417167,-0.0788009762763977
8.417112548828126,-0.6224526110868901,-0.5503614075399935,0.7027659917950629,-0.2346990704536438,0.0361280962824821,-0.1116630136966705
8.43716455078125,-0.4805416925890371,-0.5894864532914013,0.10552198317945,-0.1364042162895202,0.0099942814558744,-0.1294968873262405
8.457217529296875,-0.3231586258016526,-0.7522402898643166,0.1177659632027149,-0.033023826777935,-0.0202504768967628,-0.1514452844858169
8.47726953125,-7.62116079451e-05,-0.7381002669613808,0.5640571938067674,-0.052617572247982,0.0036086901091039,-0.0823795348405838
8.497322509765626,0.1983071978500112,-0.6331993382897227,0.3865916719228029,-0.045754849910736,0.0502169504761695,0.0336165353655815
8.51737451171875,0.0153377219546353,-0.7548363707721233,0.4203098171293735,-0.023539263755083,0.1247214153409004,0.1339870542287826
8.5374267578125,-0.2311998154852539,-0.905817644225806,0.7411094587147236,0.0006344814319163,0.1092616915702819,0.1385733485221862
8.557479736328125,0.1434656371265649,-0.8873332354430109,0.5136790057003497,0.0136101711541414,-0.0864448472857475,0.1083531454205513
8.577531494140626,0.2996929580075666,-0.6094784901581705,0.3556663723051548,-0.011364278383553,-0.2143910974264145,0.1800572723150253
8.597584716796876,0.0802243050520774,-0.5357955604404211,0.0201461314499378,-0.083312839269638,-0.1887554675340652,0.2637626230716705
8.61763671875,-0.1922654700003564,-0.6325968423519284,-0.3973433675616979,-0.138264313340187,-0.0222248453646898,0.2490604519844055
8.637688720703125,-0.1565602426297962,-0.5349539950497448,-0.6068664079636334,-0.132510244846344,0.1459376960992813,0.1854041963815689
8.65774169921875,-0.0151769464689306,-0.418617333997786,-0.5983873334318399,-0.2112714052200317,0.1675930321216583,0.1058162152767181
8.677793701171876,-0.2672796300555579,-0.3981818642124533,-0.6481283926784992,-0.3740110993385315,0.0776309520006179,0.0292604863643646
8.6978466796875,-0.0152269504899624,-0.2395308598484843,-1.5775900934726,-0.3845877945423126,-0.1329933702945709,-0.0295365154743194
8.717898681640625,0.3530915168484673,0.115152858094871,-2.3815625433355567,-0.2598656415939331,-0.1807647943496704,-0.0030856716912239
8.737950439453124,0.3521046977682039,0.2473937752433121,-2.3243232372879983,-0.2379006594419479,-0.0205551907420158,0.0527133382856845
8.758003662109376,0.1705052361509762,0.2288076596517115,-2.15904324323833,-0.2583538889884949,0.1578170657157898,0.0878222286701202
8.7780556640625,0.2342384890614077,0.2798906715592369,-2.0760943263947964,-0.1736365407705307,0.1517286449670791,0.1357098221778869
8.798107666015625,0.4438113964870572,0.316490034757927,-1.6748282324314117,-0.0866848528385162,0.0368109196424484,0.1623920202255249
8.818160400390624,0.3504691324556246,0.4598061073459684,-1.0572212347447871,-0.0912429839372634,0.1385439932346344,0.2271013855934143
8.838212158203126,0.4646925276806578,0.626645751927793,-0.7589385453939438,0.0283100828528404,0.2011502087116241,0.3000077605247497
8.85826513671875,0.298734488238953,0.7081811487115919,-0.1863853259205818,0.1609832346439361,0.2410878092050552,0.331458568572998
8.8783173828125,0.3485100708097219,0.6902087080389261,0.6788058550149202,0.1899600476026535,0.2014166116714477,0.3394573926925659
8.898369384765624,0.4418269446715712,0.7505098858751356,1.1418395461052655,0.2100103497505188,0.068340428173542,0.3365175724029541
8.91842236328125,0.3734297733370214,0.9151650260247288,1.390807877188921,0.2086745500564575,-0.0326356329023838,0.3319877386093139
8.938474365234375,0.2249649031510576,0.9867024681463836,1.5838801335275172,0.1045412570238113,-0.0831217020750045,0.303322285413742
8.9585263671875,-0.0049134727383963,1.034096233614534,0.9524766656786204,0.027143009006977,-0.1570008397102356,0.2081442028284073
8.978579345703125,-0.1206835128835402,1.1091856691293418,0.2391957096099853,0.0303291454911232,-0.1957092583179474,0.094544231891632
8.99863134765625,0.1105551002421416,1.240299920335412,0.1020236196696758,-0.0205008350312709,-0.1702277809381485,0.0454710237681865
9.0186845703125,0.3962354793850332,1.52654014358446,-0.5033014040708541,0.0902784839272499,-0.0279576200991868,0.0787833929061889
9.038736328125,0.536248163046129,1.5505897122137249,-0.1690238567531108,0.1603611558675766,0.181833878159523,0.158128559589386
9.058788330078125,0.7309267951354383,1.2571399959772824,0.83054306140244,0.0574495792388916,0.1432133316993713,0.2335003763437271
9.078841064453124,0.4949008016027509,1.1477037619635462,0.9231237299442292,0.0681685805320739,0.0093646775931119,0.2612699270248413
9.09889306640625,0.3610066738871857,0.917805238335207,0.9796785608589648,0.1092252358794212,-0.1097070276737213,0.2533381879329681
9.1189462890625,0.3044273113193921,0.6726883950479329,1.2404366984575983,-0.0349535346031188,-0.096103087067604,0.2207928001880645
9.138998291015625,0.4056589951600879,0.7201257073968649,0.751824913996458,-0.1137164682149887,0.0156608317047357,0.2184456586837768
9.15905029296875,0.5729468219008297,0.5509027478750795,0.2647796481996775,-0.0501367300748825,-0.0286576617509126,0.225939080119133
9.179103271484376,0.7027660648602991,0.3862187469571828,0.470664039838314,-0.0382909253239631,-0.1516552567481994,0.2725760340690613
9.1991552734375,0.6673525869779289,0.3287935629487037,0.1857803457647562,0.0230790954083204,-0.2092652320861816,0.324977844953537
9.219207275390623,0.3212193648347631,0.2894015368241817,0.0930617300570011,0.2193184792995453,-0.2252326905727386,0.3139179050922394
9.23926025390625,0.0924853640743065,-0.0225000010997056,0.5248936426758766,0.1641890257596969,-0.253182590007782,0.2447270303964615
9.2593125,0.0746833389319479,-0.1979828247338533,0.5821154130667447,0.0226157996803522,-0.2668253183364868,0.1816722601652145
9.279365234375,0.1072170235943049,-0.2106650500439107,0.0427279656141996,0.0111686298623681,-0.2728786766529083,0.1590911298990249
9.299417236328123,0.0646975861642509,-0.3079294924877583,-0.1123188037127256,0.0169765744358301,-0.2425636649131775,0.1273884773254394
9.31946923828125,-0.1291181454854086,-0.4735936635494231,0.1242091479927301,-0.0677125602960586,-0.209395095705986,0.0096075981855392
9.3395224609375,-0.2099343976818025,-0.5162698989763855,-0.0318880071699619,-0.1136618852615356,-0.1376082003116607,-0.1645825803279876
