timestamp,acc_x,acc_y,acc_z,gyro_x,gyro_y,gyro_z
0.106766845703125,-1.3964426682054996,-0.5405126520901918,3.8728088168293233,-0.4943205416202545,0.0139086423441767,-0.4247733652591705
0.126817138671875,-0.7649898082569241,-0.1975114078298211,6.131200907570124,-0.7819122672080994,0.4052099287509918,-0.5830451250076294
0.146867919921875,0.1358563676992431,0.3404964218325912,6.156516550612449,-0.5139821171760559,0.7055662274360657,-0.6574000120162964
0.16691796875,1.6203713967092337,0.6183318048298359,6.606421295538544,-0.0244899336248636,0.5099340677261353,-0.4403014481067657
0.18696923828125,1.692482693196088,0.4873858959279954,7.850223671036958,0.3790750503540039,0.3239160180091858,-0.1651910543441772
0.207018798828125,0.9427349507998676,0.7830453971683978,9.477803830081225,0.4445475339889526,0.6071373224258423,0.0407093800604343
0.227070068359375,0.5605825764987618,0.1992569363228976,10.395236654907464,0.4374423027038574,0.8154211044311523,0.0995624884963035
0.247119873046875,0.2032551391135901,0.486028928361088,10.867430973052976,0.4407411217689514,0.507304847240448,-0.017894634976983
0.2671708984375,0.6721947663120925,0.6538494006738066,10.660938094127175,0.4740552902221679,0.0591630786657333,-0.0369697026908397
0.287220947265625,0.3090415453828871,1.0279740974724292,10.955689102220534,0.3110636472702026,-0.0291138421744108,0.0485973060131073
0.30727197265625,-0.675310633310303,0.6969584745600819,10.782336276352405,0.0335091613233089,0.1426927298307418,-0.0930690169334411
0.327322021484375,-0.9951735785674304,0.8240326565951108,8.794124231550096,0.1220162808895111,0.2757090032100677,-0.2556146085262298
0.3473720703125,-0.5661949364878237,1.2127215930581092,7.000880632096528,0.5492308139801025,0.378086119890213,-0.334899753332138
0.367423095703125,0.5507167237836867,1.0602344450861214,6.792419083446264,0.5537195205688477,0.4294433891773224,-0.1886170208454132
0.387472900390625,1.7843606202960014,0.5496184802182018,5.084207636851072,0.4093348979949951,0.2849093079566955,0.1774152815341949
0.40752392578125,1.3101724979847669,-0.1179150162845849,1.6685884612590074,0.5630708932876587,0.002358223311603,0.4832798540592193
0.427573974609375,0.4838405514713376,-1.021038745251298,-0.9637497548431158,0.588236927986145,-0.3148709237575531,0.5562939047813416
0.447625,0.2787351448485627,-1.1396312224060297,-3.600195990785956,0.030896320939064,-0.5645894408226013,0.6064469814300537
0.467675048828125,-1.774635345095396,-1.7836811135992408,-9.095115010815858,-0.9544882774353028,-1.1344038248062134,-0.0158039666712284
0.487725830078125,-2.3089307301059363,-0.573219720558077,-17.726105612695218,-1.1833552122116089,-1.0955748558044434,-0.5022214651107788
0.507776123046875,-0.632921836522594,1.9421826995551583,-23.408551529896258,-0.5764968991279602,0.0252204127609729,-0.2319662719964981
0.527826904296875,1.2329102484755217,2.159060925025493,-21.83953344993591,-0.2140538990497589,0.882800817489624,0.5130380392074585
0.547877197265625,1.0051185609333215,1.2454121487826109,-16.912085231548545,-0.281099796295166,0.6608712077140808,0.761420488357544
0.56792822265625,-0.9184316996704788,0.3153302702635526,-12.208546306312083,-0.6491808891296387,-0.1029318198561668,0.5189821720123291
0.58797802734375,-1.4547466808751224,0.1885113781638443,-10.249834496760368,-0.9018765091896056,-0.1959332972764969,0.188054621219635
0.608029052734375,-0.3819073865640908,0.6949000807255507,-9.143781134307384,-0.8122691512107849,0.2940213680267334,0.1932514160871505
0.628078857421875,0.4524121246371418,0.6313724881887436,-4.415339238482713,-0.757989227771759,0.6616543531417847,0.3337706327438354
0.6481298828125,0.4049916172925382,0.0642260961949825,0.535609097957611,-0.7228415012359619,0.3499714434146881,0.3486319482326507
0.668179931640625,-0.6165038587503134,-0.1429147252455353,5.537774995937943,-0.8140309453010559,0.3708414733409881,0.0553866736590862
0.68822998046875,-1.2037250705234706,0.2797841789774596,9.474430554255845,-0.9977401494979858,0.7965844869613647,-0.225195363163948
0.70828125,-0.6865174523055553,0.6281234963301568,10.809940907114743,-0.9910840392112732,1.1922876834869385,-0.3551675677299499
0.72833203125,0.0083498221289366,0.3823029252203181,12.46648412579298,-0.8741569519042969,0.9443119764328004,-0.250735878944397
0.748382080078125,-1.2589487989649175,0.0950575069840997,12.968707671499253,-0.580767810344696,0.028047664090991,-0.212423026561737
0.768432861328125,-1.7474997931495309,-1.263637687433511,16.947129656922815,-0.908867359161377,-0.13257797062397,-0.2432869374752044
0.78848291015625,-2.4220370309345425,-2.169568582775444,15.911721610057352,-1.232504963874817,-0.4161147177219391,-0.5577771067619324
0.808533935546875,-1.344338240828365,-2.340297197619825,12.76158117084503,-1.2228022813796997,-0.5271726846694946,-0.6841387152671814
0.828583984375,-0.5384043546993285,-2.9355428720250725,10.401657043343782,-1.1411396265029907,-0.6000204086303711,-0.7394552230834961
0.84863525390625,1.2618461278416215,-3.188623314602673,8.346110999459027,-1.10298490524292,-0.4592568278312683,-0.5067697763442993
0.868685302734375,2.192276089145988,-3.336735023969412,5.8673564943939445,-0.923355519771576,-0.2653647363185882,-0.1547882407903671
0.888736328125,1.5216352742776271,-3.815527717466652,3.60323024391532,-0.5842328071594238,-0.0174290724098682,0.0056226616725325
0.9087861328125,1.920445207260549,-3.672545187681913,1.8520470860779283,-0.1139058470726013,0.3661872744560241,0.269685298204422
0.92883740234375,2.1802673791833223,-3.716821259520948,1.131670618790388,0.2305764108896255,0.3364763557910919,0.5845396518707275
0.94888720703125,1.8349223482757808,-3.5458208419978616,0.4029980323225259,0.2795942425727844,0.4285914301872253,0.8703840374946594
0.96893798828125,1.4580118201509118,-3.678093177197873,-2.107100290033221,-0.058401983231306,0.2066349238157272,0.959113836288452
0.98898828125,1.812962007010728,-3.047227469487488,-9.895735812163352,-0.1505440771579742,-1.1920678615570068,1.0339150428771973
1.0090390625,1.2665820703223347,-0.5861258908171206,-21.94960593602657,0.6254623532295227,-2.21985411643982,1.2490012645721436
1.02908935546875,0.3391333533184603,2.0115974504344165,-28.34410706689357,1.4475668668746948,-1.116679072380066,1.643019199371338
1.049140380859375,-3.8804853428065775,1.945529379634559,-24.73044778342247,1.3597697019577026,0.1987997591495514,1.2087405920028689
1.069190185546875,-5.1560143974334,2.0225015601560474,-20.424604692447183,1.090235471725464,0.4775533378124237,0.2796098291873932
1.089241455078125,-1.8024176705121997,2.7079882081091404,-15.84790818631649,0.7100651860237122,0.3906645178794861,-0.2200253009796142
1.109291259765625,1.16292230081819,3.49980464849323,-14.645696296834943,0.7510427832603455,-0.21658256649971,-0.2957132160663605
1.12934228515625,2.411554946017265,4.221505350121856,-12.706630267995596,0.8493955135345459,-0.0883946642279625,-0.1241033971309661
1.14939208984375,2.533897423355281,3.9602331255212415,-8.08047385764718,0.7891494631767273,0.3658080101013183,-0.0405742488801479
1.169443115234375,1.8508590453371403,2.874149076646566,-0.780174810168147,0.3854131996631622,0.7596826553344727,-0.2629717886447906
1.189493408203125,2.051786691351235,2.5849063105806707,6.099879302111268,-0.0662661790847778,1.370279312133789,-0.1476689130067825
1.209544189453125,2.190840503384918,2.072777310801297,10.214034869104625,-0.2020178437232971,0.9979977011680604,0.1704078763723373
1.22959521484375,1.0396662157665937,2.0839339339792726,11.07412492750883,0.0381698310375213,1.006953477859497,0.509981095790863
1.249645263671875,-1.2827917391061785,1.4774449810259045,12.816353209996224,0.2325134128332138,0.9613518714904784,0.4165483117103576
1.2696962890625,-3.21283654936105,0.4562006301999092,16.273493898022174,-0.0475513376295566,0.6862407326698303,0.0978985056281089
1.289746337890625,-4.373561413200199,0.4233927682386711,14.529109898805617,0.1815447211265564,-0.1472088247537613,-0.4286507666110992
1.30979736328125,-3.542309911267459,0.4121448135154321,15.708864457285404,0.0942399427294731,-0.0182538367807865,-0.6107217669487
1.32984716796875,-2.92641819306612,-0.5256315650289878,16.943830615377426,-0.3516150712966919,0.4671025276184082,-0.6169533133506775
1.34989794921875,-2.6653502588659523,-0.957926017125696,16.271810474979876,-1.020129919052124,0.671445906162262,-0.5388020873069763
1.3699482421875,-3.094384649720788,-0.9448298772525042,12.326544909226891,-1.0623509883880615,0.3040359020233154,-0.6393529176712036
1.389999267578125,-2.298069290482253,-0.805866446916014,9.722821962234375,-0.7815582156181335,-0.1851469278335571,-0.6348220705986023
1.41004931640625,-0.8726998029999434,-0.6839847189575433,9.055598992985486,-0.6522464752197266,-0.3969806134700775,-0.4593814611434936
1.430100341796875,0.6919219416975975,-0.4225477322492748,7.8749875254154205,-0.6086073517799377,-0.2441432476043701,-0.0341076478362083
1.450151123046875,1.3623900303475558,-0.4873582407360896,6.677638273534178,-0.5184010863304138,0.07123813778162,0.4620618224143982
1.470201416015625,0.1536246275693178,-1.4093304990902542,5.256067593812942,-0.1911436468362808,-0.1160851642489433,0.6668742299079895
1.49025244140625,-0.9670599023044107,-2.379843172197044,4.013849272635579,0.1390543431043625,-0.7261900305747986,0.5800092816352844
1.51030224609375,0.1618644865177571,-2.4150910111889243,2.1248750161767003,-0.0523813478648662,-1.036833643913269,0.7099508047103882
1.530353271484375,0.0483769312866032,-2.4414679998524487,-3.167817550200224,-0.694165825843811,-1.528106689453125,0.8910539150238037
1.550403076171875,-2.3120132062911987,-1.6961998140230774,-15.647536420619486,-0.860386848449707,-3.707727432250977,0.4042374789714813
1.5704541015625,-3.8740938882038,1.537779184348881,-28.00312972967625,-0.5763757228851318,-4.213282585144043,0.0128074930980801
1.590504150390625,-5.14295851650536,5.521477356609702,-35.58323297600746,0.3223569989204407,-0.7947131991386414,0.1626939177513122
1.61055517578125,-5.580281427755952,4.974155609026551,-29.49523875747919,0.7273814678192139,1.301025152206421,-0.0474422648549079
1.63060546875,-3.4975814194858077,3.4730841070890426,-18.058738315415383,0.390311062335968,0.9707404971122742,-0.3952693045139313
1.65065625,-0.3875228883583098,2.13995480414778,-11.187017147195338,-0.1308971941471099,-0.1120631545782089,-0.5774574875831604
1.670707275390625,2.366788460312784,2.121864582314342,-10.226399845159053,-0.2214893251657486,-0.3212942779064178,-0.338703840970993
1.690757080078125,1.6826488430544733,1.581360113530606,-7.736148963567614,-0.1177859455347061,0.4009865224361419,-0.2677094936370849
1.710808349609375,0.4801007804211228,0.6906309520389884,-1.6830138769745826,-0.1087934970855712,0.858412504196167,-0.535383403301239
1.7308583984375,1.129001326515898,0.0160439568281173,2.588700149905681,0.2217998206615448,0.3578393161296844,-0.6873617768287659
1.7509091796875,1.8910614379964767,-0.6460605734284967,7.074841355842351,0.3709800243377685,0.0356271974742412,-0.6132913827896118
1.770959228515625,1.2581725538954138,-0.7576089042253792,11.037227567744257,0.2909667789936065,0.3249727487564087,-0.5430114269256592
1.791010009765625,-0.7192609072610735,-1.1855353338383137,14.232095621955391,0.0553072765469551,0.7117094993591309,-0.8568744659423828
1.811060302734375,-0.4289700934469699,-1.427630125890672,15.805362007009984,-0.204177901148796,0.6182093024253845,-1.1144672632217407
1.831111328125,0.7463751241579651,-1.227595044802129,15.428657522851228,-0.3379451930522918,0.3239065706729889,-1.0804325342178345
1.851161376953125,1.8319408482469617,-1.049589278561622,14.55310802950859,-0.4472318887710571,0.0970890074968338,-0.8114778995513916
1.871211669921875,2.119498145443946,-0.9605831075057388,12.990024015772342,-0.4948970079421997,-0.062248233705759,-0.4652808904647827
1.891262451171875,1.967640819808096,-1.3081328088507056,12.14921032024622,-0.6954099535942078,-0.2400142699480056,-0.2125528305768966
1.911312744140625,1.5571806349113582,-1.4472776601687072,9.695932201743126,-0.7029708623886108,-0.3066312372684479,-0.0466359555721282
1.93136328125,1.3973178436048328,-1.5116533939674497,6.711388567444682,-0.3997599184513092,-0.0441004857420921,0.1317855417728424
1.951413330078125,1.2517319994539022,-1.6344145351089536,5.690977598702907,-0.0679052770137786,0.347097635269165,0.3546817302703857
1.971464599609375,0.5809287970980629,-1.9050956624373792,5.344668252807855,0.2621189057826996,0.3673567473888397,0.4940333366394043
1.991515380859375,0.4617686395905911,-1.8583871027544137,4.310584732544422,0.5992001891136169,0.2490995973348617,0.6758004426956177
2.0115654296875,-0.2397131028139032,-1.900712917308509,3.41797713689506,0.7254641056060791,0.2640257477760315,0.7609121203422546
2.031616455078125,-0.6699916302446276,-2.0934270078592,1.3570757034569978,0.6357021331787109,0.4001844525337219,0.8191126585006714
2.05166650390625,-1.0837614511460063,-2.246931370049715,-3.802787186098098,0.6530250906944275,-0.1010631769895553,0.6766537427902222
2.071717529296875,-1.6986122819922864,-1.6498497123889624,-9.453747831711173,0.4551674723625183,-1.2372366189956665,0.4254121780395508
2.091767578125,-2.4385817768916485,-0.2882857576020062,-15.85510598886609,0.1270452737808227,-1.740239500999451,0.104984812438488
2.111818603515625,-3.40295521659106,1.8916767934158445,-22.829746264290808,0.2323784828186035,-0.7850348949432373,-0.1783801317214965
2.131868408203125,-1.9821926383823156,3.348673591305315,-25.60530169571638,0.68467777967453,-0.081725999712944,-0.0252178460359573
2.15191943359375,-1.6960637665532527,4.184469166408479,-23.100323785114288,1.0856821537017822,-0.2714368402957916,0.1512080430984497
2.17196923828125,-2.040985895873606,3.8763264695614574,-17.05288720242381,1.013180375099182,-0.5166958570480347,0.1103718429803848
2.1920205078125,-2.258533252777159,2.6299203413054344,-11.525839936727284,0.6081769466400146,-0.2274836152791977,-0.2202712148427963
2.212071533203125,-0.2302555203724652,1.9630064380057155,-7.833729632353783,0.2820296883583069,0.3009986281394958,-0.4041193723678589
2.232121337890625,1.9090943766847253,1.8930825685605408,-4.7952726215600965,0.3293355107307434,0.6161091923713684,-0.3451237678527832
2.252172607421875,2.977959579733014,1.6465778511114415,0.9553601121604444,0.2482228577136993,0.4705449938774109,-0.2120278626680374
2.272222412109375,3.482343518343568,1.3781395342737437,5.607919960787892,0.0887168943881988,0.1886316537857055,0.0091990828514099
2.2922734375,2.288482839230448,1.0087952036194503,8.290225446107984,0.0874697193503379,0.2950961291790008,0.1086733564734458
2.31232373046875,0.2937701620961539,0.9841523452721536,11.053712254077196,0.0448426194489002,0.8741925358772278,-0.0211327318102121
2.33237451171875,-0.3057346675909124,0.7944104024000466,13.926749570089578,-0.0937582775950431,1.3540209531784058,-0.1701966971158981
2.352425537109375,-1.0774833937898278,-0.0161466134849935,16.55653576362133,-0.2750651836395263,1.2037746906280518,-0.4297294914722442
2.372475341796875,-1.3175484335802494,-0.542255623300001,17.032190451353788,-0.3036851286888122,0.5211021900177002,-0.7143822312355042
2.3925263671875,-0.3014469986006617,-0.6582993658199906,17.49683391572833,-0.6146594285964966,0.0821857675909996,-0.77140873670578
2.41257666015625,0.8690833660684526,-0.7036115757737308,15.78589508999586,-0.919741690158844,-0.2295110374689102,-0.6027959585189819
2.43262744140625,1.056437610086426,-0.962711863162741,12.62558630799055,-0.8949910402297974,-0.6628611087799072,-0.4230478703975677
2.452677490234375,1.0392501823116094,-1.3595616750538349,9.94262615815401,-0.7466799020767212,-0.9149720072746276,-0.323353499174118
2.472728759765625,1.659746252503246,-1.3561490901313722,7.648897965615987,-0.6466246843338013,-0.5899196267127991,-0.0735931992530822
2.492778564453125,2.092960267130285,-1.2064113139327617,4.686223633298278,-0.3346150815486908,-0.1222712323069572,0.301947146654129
2.51282958984375,1.722273289695382,-1.3990057966917753,3.4252316380679604,0.020194774493575,0.05495086312294,0.6087905764579773
2.532880615234375,0.8277584721852094,-1.799751081651449,2.595758251723647,0.2416502833366394,-0.0027361458633095,0.8073738813400269
2.552930419921875,0.2214745585509575,-1.4807202033042908,0.1216267302840948,0.493152916431427,0.0686616003513336,1.0173182487487793
2.572981201171875,-0.3160098500255495,-1.6103883473552765,-1.6885978145867586,0.421064019203186,-0.1632054150104522,1.152659893035889
2.593031494140625,-1.451588216844201,-1.2212136732019483,-6.327070685672759,0.0731669217348098,-1.3633766174316406,1.1237435340881348
2.61308251953125,-4.4306718321710825,0.525062569501996,-15.187855547088384,-0.0102464165538549,-2.6191675662994385,0.6522111892700195
2.63313330078125,-6.2957952574431895,2.255031089875102,-23.341492840623854,0.077684000134468,-2.0776822566986084,0.1056010425090789
2.65318359375,-5.733859878095984,4.145191925770044,-26.54773569080829,0.3928623497486114,-0.0532860122621059,0.0760441422462463
2.673234375,-5.008825355869531,4.190371960711479,-22.72537637375593,0.7949568033218384,0.4334227442741394,0.0253716371953487
2.69328466796875,-3.892262874361872,3.254147926175594,-15.042509503042696,0.6643708348274231,0.0494528599083423,-0.1941025108098983
2.713335693359375,-3.0901445279330013,2.117783596611023,-10.209631081187725,0.1944833844900131,-0.0842651054263114,-0.5560330748558044
2.733385498046875,-1.7222412871219217,1.8749401781484485,-8.788268491259217,-0.0945358872413635,0.3940856456756592,-0.8563892841339111
2.7534365234375,0.1221079379297792,1.800372428420186,-6.753420367488265,-0.1234978288412094,0.9953479170799256,-1.0216339826583862
2.77348779296875,2.8905402394771573,1.760673747499287,-2.369851647275686,-0.0470433831214904,0.8959836363792419,-0.8609937429428101
2.793537353515625,5.117560455876588,1.6483286403015256,2.438300914123654,-0.0121475812047719,0.3153903782367706,-0.3896144032478332
2.813588623046875,6.158275376978517,1.347983465462923,4.7677971701353785,0.2076292484998703,-0.029255986213684,0.3518185615539551
2.833638427734375,3.961194664029777,0.5200294341729954,7.324888714334368,0.4384235143661499,-0.0445245131850242,0.7212740182876587
2.853690185546875,1.0731151155777274,-0.5111259236840531,11.526627872234585,0.2773461043834686,0.404316633939743,0.6339392066001892
2.8737412109375,-0.694595252560079,-1.6022560404345392,14.475677583825588,-0.0471906475722789,0.7036830186843872,0.3258237838745117
2.893791259765625,-1.5296427857749164,-2.037925046998262,14.923250670933722,-0.174818143248558,0.5773293972015381,-0.0952299833297729
2.91384228515625,-0.1454891057781875,-1.875185092820227,14.651237564349174,-0.3168382346630096,0.4212511479854584,-0.2220965176820755
2.93389208984375,0.572046219799295,-1.6670289568573236,13.669724773800372,-0.399625301361084,0.1299533694982528,-0.1914467364549636
2.953943115234375,0.5541172529421746,-1.5967450219281016,12.874877879679202,-0.4842215776443481,-0.2513704001903534,-0.1948122531175613
2.973994140625,0.2778832772595808,-1.280614833458513,10.582740755724906,-0.3882406055927276,-0.2394242286682129,-0.2542554140090942
2.994044189453125,0.6060279843781143,-1.3862386695772408,9.374009693607688,-0.4190570116043091,-0.0450879260897636,-0.3014523088932037
3.01409521484375,1.288511870318651,-1.3402593009516597,7.544691156688332,-0.3996246457099914,0.1153624579310417,-0.179277241230011
3.03414599609375,1.4281903901219366,-1.2048963793251664,4.978618433654308,-0.0813116356730461,0.1838874965906143,0.0509262904524803
3.054196044921875,1.2553076659835871,-1.2312057826451956,3.0686504890054462,0.2918798327445984,0.2794854342937469,0.314556360244751
3.074247314453125,0.7775877162843943,-1.228566081791371,0.9761574009954928,0.5904273390769958,0.4748425483703613,0.5257415175437927
3.094297119140625,0.1610153771414421,-1.059125241735205,-1.44864339556396,0.6821244359016418,0.3948879241943359,0.6701914668083191
3.11434814453125,-0.7648932890798896,-0.6443310462221503,-5.173036843904852,0.7015267014503479,-0.2427355349063873,0.7416480779647827
3.1343994140625,-1.645041581454873,0.4731448603359982,-9.516541849276424,0.6672892570495605,-0.7755271196365356,0.8103938698768616
3.154448974609375,-3.8375788057550784,0.7924456781983376,-13.402078045731782,0.3855061829090118,-0.9348742365837096,0.3533567488193512
3.1745,-3.2499922678008675,1.9525171926952896,-17.870585395300388,0.1985690593719482,-0.4435248374938965,0.0050917100161314
3.194551025390625,-0.711181791832298,3.47509340108484,-21.653052262425422,0.6189829111099243,-0.0480896569788455,0.328141301870346
3.21460107421875,-1.1146566478863358,3.3444004440307613,-19.77048261231184,1.0729061365127563,-0.3089457750320434,0.5814881324768066
3.23465185546875,-3.180937728536129,1.8696876644477247,-13.070517356157302,0.7308964133262634,-0.4035690128803253,0.2401778995990753
3.2547021484375,-3.9166222395926713,0.7248967211909592,-9.05926452975571,0.0336811728775501,-0.0602022781968116,-0.4251948893070221
3.274753173828125,-1.99022221558094,0.7146314938947558,-8.25925280021727,-0.2000960111618042,0.2971034944057464,-0.8473812341690063
3.294803955078125,0.0438280723432078,0.8795219771701842,-4.402902366235852,-0.2331025749444961,0.5610927939414978,-0.975749135017395
3.314854248046875,1.6369218417547642,1.0108639727175237,1.3744506166279316,-0.4354400932788849,0.367893248796463,-0.8970885872840881
3.3349052734375,2.762752648475766,0.8790444958515464,5.21285973572731,-0.7082729935646057,-0.1581509560346603,-0.6941465735435486
3.3549560546875,2.73404327134192,0.6590753916937857,6.423280650627612,-0.7148418426513672,-0.4532868266105652,-0.4068613052368164
3.37500634765625,1.493118204845488,-0.1231198914512991,8.492197048217058,-0.7029815912246704,-0.4229556918144226,-0.2099841386079788
3.39505712890625,0.2221517819590866,0.5665232916593551,10.933325294721126,-0.9837707281112672,0.299541562795639,-0.2029769867658615
3.415108154296875,0.3826034790694713,-0.7340611476384102,10.556582232117652,-0.8697026371955872,0.7892041802406311,-0.3293834924697876
3.435157958984375,0.4119241930346936,-0.9093245563682169,10.844163494712111,-0.5719178915023804,0.6285421252250671,-0.4219358563423157
3.455208984375,1.7414292410641907,-1.1995745267152786,11.981723756062983,-0.4976568520069122,0.3256331384181976,-0.174117311835289
3.475260009765625,1.4215642499804495,-1.4131456734642385,11.969988894605637,-0.5532578229904175,-0.0786402449011802,-0.0435767732560634
3.49531005859375,1.46296651994884,-1.5531265372149643,10.709590189093351,-0.5790801048278809,-0.3643026649951935,0.058890376240015
3.515361083984375,1.5527438215076923,-1.4858976059421896,8.648881647878884,-0.4663153290748596,-0.4764805436134338,0.1378498375415802
3.535412109375,1.1590932440493256,-1.5593229076370596,6.839390677979588,-0.2731588780879974,-0.330929696559906,0.1650184839963913
3.555462158203125,1.4928106002010404,-1.7188804323866962,5.642542945879698,-0.1261176019906997,-0.0131192542612552,0.2595477104187011
3.57551318359375,1.0976129394311458,-1.644724770590663,4.683846382772923,0.0376647040247917,0.3070525228977203,0.2994309961795807
3.595563232421875,1.331609253767133,-1.3456059226766228,3.5430478701531887,0.3153647184371948,0.5198698043823242,0.4190511107444763
3.6156142578125,1.1065034443080424,-1.3721709812581535,2.9184125812649726,0.5345498323440552,0.4464780390262604,0.5367923974990845
3.635665283203125,0.8925753008149564,-1.2191003343097866,2.0894120731294152,0.4284326732158661,0.3254169523715973,0.6995788812637329
3.655715087890625,-0.196589872538112,-0.9626911126356572,-1.2100222709715365,0.2161499410867691,-0.1826769560575485,0.7180991768836975
3.67576611328125,-1.559277753321081,-0.0204512518763542,-7.681712439981102,0.1514089256525039,-0.7660032510757446,0.5694663524627686
3.695817138671875,-2.4505776273727418,1.0534610784936695,-14.97744870958924,0.0698926597833633,-0.9305801391601562,0.2469291538000106
3.7158671875,-1.77059922144711,2.8407036109015342,-22.58758352156877,0.2921557426452636,-0.4045427739620209,0.1805869787931442
3.735918212890625,-1.312557347294688,4.8477892829999325,-25.444509076213837,0.876548707485199,0.3777962923049927,0.5712035894393921
3.755968994140625,-2.798901527960598,4.051504465030133,-20.51226894737482,1.116764783859253,0.4480550587177276,0.679680585861206
3.77601904296875,-4.411192347936332,2.6696412340581417,-13.629342494529483,0.811764657497406,0.218743547797203,0.29481041431427
3.7960703125,-3.6387244588837024,1.7024664732024073,-9.19496362453401,0.2220597565174102,-0.2458002716302871,-0.1761991083621978
3.81612109375,-1.8843074336916208,1.540594680161029,-8.889883530128001,-0.1257576048374176,-0.4366602301597595,-0.4821465015411377
3.836171142578125,-0.2241453669290989,1.6903944887451827,-8.790223132458328,-0.0910075232386589,-0.0893221199512481,-0.5969139337539673
3.85622216796875,1.3930430888950824,1.4382126024425028,-4.582831063362955,-0.133483737707138,0.3473102450370788,-0.6070746183395386
3.876273193359375,2.842262238520384,1.247373073592037,-0.1389379305690526,-0.1163489148020744,0.3640206456184387,-0.4977967143058777
3.8963232421875,4.540081178177893,-0.310417400313355,4.654299385771155,-0.0178017914295196,0.0335781909525394,-0.0970572605729103
3.916374267578125,2.058261586453765,-0.1356446246447041,8.8871234177649,0.0722649693489074,-0.0277582798153162,0.0234598256647586
3.93642529296875,-0.3297627002418041,-0.2614179897468537,13.043748591697216,-0.1075698435306549,0.4505482614040375,-0.1601357460021972
3.95647509765625,-1.0277574590470642,-0.9534802897632122,15.522551612079145,-0.3371277153491974,1.0946887731552124,-0.4058724045753479
3.9765263671875,-2.073310394764692,-1.7926126080736515,15.772762052178384,-0.2489882111549377,0.8244335651397705,-0.8804664611816406
3.996577392578125,-0.8863733043696731,-2.173801544170081,17.03013176525831,-0.443907082080841,0.025888605043292,-1.0869064331054688
4.016627197265625,1.2285323256522416,-1.6276608230650425,15.500983923393488,-0.7714592218399048,-0.1531434804201126,-0.9051083922386168
4.036678466796875,1.5353110406696795,-1.646344042355567,11.61382100251913,-0.6393030881881714,-0.4839379489421844,-0.7774396538734436
4.0567294921875,1.946284874176979,-1.953049692136794,9.199316559046506,-0.4940385520458221,-0.6591058373451233,-0.6337876319885254
4.076779052734375,2.053901491548121,-2.174740870846808,6.874016001158952,-0.2773829102516174,-0.5298806428909302,-0.4771157205104828
4.096830322265625,1.4586362356595697,-2.0779205189086496,4.8875271268874405,0.0778238475322723,-0.0689425319433212,-0.3738267719745636
4.116881103515625,1.8389542341403664,-2.0756632415011524,4.870605802702904,0.3019939959049225,0.4567890465259552,-0.118138737976551
4.13693115234375,1.6926180100135504,-1.9922234724007544,4.509759397411346,0.5751222372055054,0.6475643515586853,0.1551178395748138
4.156982421875,1.2611796267569064,-1.9974470522679388,4.311516460436582,0.7755845785140991,0.5471222996711731,0.3479858636856079
4.177033203125,0.9604814737621694,-2.171373294109851,2.398494973435998,0.8633933067321777,0.4468760192394256,0.501672089099884
4.197083251953125,1.5306322352036832,-2.547100896060466,-1.1764444110184906,0.7733988761901855,0.239705428481102,0.7112017273902893
4.217134521484375,1.4591431622684,-2.485003336326778,-6.58358285626471,0.7537515163421631,-0.2918676435947418,0.954537570476532
4.237185302734375,0.0890756926281377,-1.6226676909528672,-13.246378949975966,0.9912760853767396,-1.5949037075042725,0.9974297881126404
4.2572353515625,-1.381193368886411,-0.1169623917348682,-20.39786632312536,1.4648319482803345,-2.1323959827423096,0.7292988896369934
4.2772861328125,-2.984985825107992,1.5486657584138213,-21.03563348078728,1.6500041484832764,-0.2250649631023407,0.5864095091819763
4.29733740234375,-4.259052113705874,1.6553322354532778,-17.357170593494175,1.4905670881271362,1.0903875827789309,0.3261496424674988
4.317386962890625,-3.411927627597749,1.3531200976990163,-12.780688022375106,1.3895375728607178,0.6241022944450378,0.0154688172042369
4.33743798828125,-3.380802713754773,0.7251616557374596,-8.38834679764211,0.9699268341064452,-0.3818719983100891,-0.5272842645645142
4.3574892578125,-3.048192222866416,1.090451158042997,-6.705500093927979,0.4014436602592468,-0.4229898750782013,-1.025303840637207
4.3775390625,-1.442080383786559,1.978303229728341,-4.140342732173204,0.0981831476092338,0.4426767528057098,-1.0410162210464478
4.397590087890625,0.2112804054632782,1.7500075381867586,0.8333253855973481,-0.3986370265483856,0.6981011033058167,-1.0297023057937622
4.417641357421875,1.1115220031224191,2.1535697802633047,3.8811727405488488,-0.7322016954421997,-0.2253780663013458,-0.9807829260826112
4.437692138671875,1.3914303930014371,2.365135724669695,3.2217461242645977,-0.4771906733512878,-0.9574570059776306,-0.8078592419624329
4.4577421875,1.1184020449597387,2.561810973936319,4.083361784800887,-0.2214631736278534,-0.9034850001335144,-0.4225521981716156
4.47779345703125,0.2399485007386654,1.452512199821323,5.116891178312898,-0.3502132892608642,-0.5744017362594604,-0.5967565774917603
4.49784423828125,0.8987982669830322,1.3296867612719534,5.533415631684661,-0.3985678255558014,-0.0868318900465965,-0.6044344902038574
4.517894287109375,1.3855631084032356,1.008001715154201,6.071413670605421,-0.3582483232021332,0.3223050236701965,-0.5609312057495117
4.5379453125,1.520233590786159,0.4661351642370224,7.287102296775579,-0.2724122703075409,0.361592948436737,-0.534234344959259
4.557996337890625,2.02230019236505,0.326919731900841,7.876691991245746,-0.1057961359620094,-0.277558296918869,-0.4921447038650512
4.57804638671875,2.298042986997217,0.5624832224883138,7.533753583088517,0.2167381644248962,-0.6551348567008972,-0.2912152111530304
4.598097412109375,1.3486428061544895,0.6852616070255637,6.881084039849043,0.6035818457603455,-0.5176687240600586,-0.1076920628547668
4.6181484375,0.7989150203429162,0.2551559336774051,7.842535454621911,0.6057520508766174,-0.3796683847904205,-0.1615688800811767
4.638197998046875,0.494506395457685,0.0553191516399383,7.393347333532572,0.4317432940006256,-0.570447564125061,-0.2951054871082306
4.658249267578125,0.5375881429456174,-0.038402211369574,6.0707619286984205,0.2494124919176101,-0.5584545135498047,-0.6052991151809692
4.67830029296875,0.9423726933587342,0.2041452928863465,4.408896053692699,0.1432638168334961,-0.6506276726722717,-0.7281573414802551
4.69835009765625,1.110220565135032,0.3689353114619851,2.505643681034446,0.343281477689743,-0.4309089779853821,-0.4887968599796295
4.7184013671875,0.1166938039265573,0.433242656199634,0.501936545458436,0.4648197889328003,0.2066577970981598,-0.2317760288715362
4.738452392578125,0.0590970627434551,0.6250314485989511,-1.1800386361181736,0.4437673985958099,0.2331365197896957,-0.1299622505903244
4.758502197265625,1.1047034091487526,0.2970788665190338,-2.0266502042680976,0.5209145545959473,-0.3685542643070221,0.0864963829517364
4.778553466796875,0.0803759976156055,0.5046586638987064,-2.8202982439935207,0.614563524723053,-0.2895863652229309,0.1060692593455314
4.798604248046875,-1.0251098671477288,-0.253556827917695,-2.9137498501509427,0.1737155318260193,0.0514123700559139,-0.3684312105178833
4.8186552734375,-0.5394982143506407,-0.5929983338698744,-10.12099418183565,-0.4196774661540985,-1.3873900175094604,-0.5081725716590881
4.838705322265625,-0.2114711787950247,1.773745118257403,-13.263594288671015,0.1811435520648956,-0.8936962485313416,-0.0417275615036487
4.858755126953125,-2.211005485665798,1.8583616760522128,-11.964389174902438,0.1395250260829925,0.3356882035732269,0.4053159952163696
4.87880615234375,-3.192414231318235,-0.0296186009332537,-8.06275816821456,-0.7192730903625488,0.8309794068336487,0.4723964929580688
4.89885595703125,-2.5592919768527147,-0.7756916734047233,-7.199577742579579,-1.1925692558288574,0.4747934937477112,0.0009069070219993
4.918906982421875,-1.545755131664127,-0.9514328557141124,-7.52540953311324,-1.2448723316192627,0.0803567990660667,-0.3140977621078491
4.9389580078125,-1.5915025912299752,-0.6611810587361454,-6.331093949839472,-1.3596062660217283,0.2141072750091552,-0.4299862682819366
4.959009033203125,-1.2374224652029573,-0.1108157056733965,-3.981104940897226,-1.1432218551635742,0.7676951289176941,-0.2382970154285431
4.97905908203125,-0.2141742272086441,-0.0565586303070187,-0.6814315273433923,-0.7012168765068054,0.6321736574172974,0.0162182860076427
4.99910986328125,0.07245769877173,-0.7154860648974776,3.557454581168294,-0.5451387166976929,-0.0618115626275539,0.0303882136940956
5.019160888671875,-2.0907719633057718,-1.617672220753133,4.682054238659143,-1.2123370170593262,-0.6181272268295288,-0.6742222905158997
5.039211181640625,-1.1081976079400628,-0.8198726143062114,1.2799246592372655,-1.379006028175354,0.1793108284473419,-0.9299823045730592
5.059261962890625,1.5053051939845083,0.3525526972640305,-0.2051940712869167,-0.5988335013389587,1.4381719827651978,-0.3758973181247711
5.07931298828125,2.3130539475157854,-0.1612359062906354,1.940591630971432,0.3458580076694488,1.4204111099243164,0.043490033596754
5.099363037109375,1.2957730934932827,-0.6655459759473801,5.532549370244145,0.9192173480987548,0.7215466499328613,0.1608297973871231
5.1194140625,0.9425634666904806,-0.9387268842022866,7.465837984725833,1.0883047580718994,0.109258085489273,0.0823644548654556
5.139465087890625,0.7427608791835606,-0.2443115913189947,8.422584582808613,0.9771233201026917,0.0877193585038185,0.1492292284965515
5.15951611328125,1.04219346922189,0.1990979463689029,7.980884771648049,0.9816519021987916,0.380641371011734,0.4599113166332245
5.17956591796875,0.0316208806663751,0.0987391911715269,7.559768314310908,1.0112295150756836,0.4700754284858703,0.4333856999874115
5.199616943359375,-0.7060013935197145,0.3396583635732531,6.956766180559993,0.9723252654075624,0.515144944190979,0.2747603356838226
5.21966796875,-1.0766064648248257,0.7390922736734151,5.693510916572809,1.2376056909561155,0.4502719938755035,0.0844130516052246
5.239718017578125,-0.1483392345122993,1.5365826680406929,5.958977377992868,1.421925067901611,0.5216873288154602,0.2679123878479004
5.259768798828125,-0.0536820519573986,1.416657188716531,6.480480209186672,1.2383840084075928,0.5293238162994385,0.520844042301178
5.279820068359375,-0.5610392707576974,0.8209267995342612,5.034029939752817,0.8172966241836548,0.3387808799743652,0.6402133107185364
5.29987109375,-0.2694463979016989,0.9171189365714788,1.2763602447539568,0.7658507823944092,0.0225622989237308,0.6779499650001526
5.3199208984375,0.3791659058362245,0.9181266523092984,0.1963929251939058,0.5482441186904907,-0.3320038616657257,0.8058491945266724
5.33997216796875,0.0114634971700608,0.7117536003708839,-0.3874725464105605,-0.4727821350097656,-0.4489924311637878,0.8645839095115662
5.360023193359375,-0.5006801156565547,1.4961977584213018,-4.607279860442876,-1.49363374710083,-0.2492766678333282,0.9971596002578736
5.380073974609375,-0.2309806928418576,1.4895537903621792,-11.602030026960373,-2.3732495307922363,-0.4656775593757629,0.467056393623352
5.400124267578125,-0.2823689347736537,2.754684785093367,-19.019343927013875,-2.288201093673706,-0.163537248969078,0.4522747695446014
5.420175048828125,0.2031828045297413,3.172666159275174,-19.15715665294528,-1.7023109197616575,0.4173003137111664,0.7440012097358704
5.44022607421875,0.1870936933856457,1.4691466698884963,-13.730526740765573,-1.4256941080093384,0.0811165571212768,0.6769806146621704
5.460277099609375,0.2240162241240963,0.397084497429803,-7.630580803158879,-1.389897108078003,-0.1762217581272125,0.7365621328353882
5.480326904296875,-0.9293293796513228,-0.4630464775066822,-2.065133956441283,-1.4760944843292236,-0.0833039432764053,0.5965924263000488
5.5003779296875,-2.131537981197238,-1.0845782474216072,-0.1728998214036226,-1.612959384918213,-1.1584681272506714,0.2273741662502288
5.520428955078125,0.2581716282367706,-1.036582789733261,3.310769392585754,-1.1419153213500977,-0.6530872583389282,-0.0685333311557769
5.540479736328125,1.9539625691980125,-1.2143066702924667,4.646349888071417,-1.0720951557159424,-0.3741309940814972,0.2485939264297485
5.560530029296875,1.0338662242509424,-1.4124879402078687,4.720243391799927,-0.674258291721344,-0.2739890813827514,0.4788945317268371
5.580580810546875,-0.3766845738818868,-1.8751685800768436,4.168826483857631,0.0167036056518554,-0.4268925786018371,0.3637057542800903
5.6006318359375,-0.5742519131500273,-2.220136740496009,7.049645539787411,0.4007384181022644,0.1805572658777237,0.1505323648452758
5.62068212890625,0.3556253827076405,-2.369268002168834,9.188615132290124,0.3138366639614105,0.4189566671848297,0.1886027157306671
5.64073291015625,0.0530823690311983,-2.007665371682495,9.898794030690192,0.2697808742523193,0.4737059473991394,0.1774034947156906
5.660783935546875,0.3745170571170747,-2.606538004413247,10.325361739170551,0.2665342986583709,0.4153438210487366,0.1808226406574249
5.680835205078125,-0.4917270304048433,-2.147975613518059,10.113882888525724,0.2189216315746307,0.4838172495365143,-0.0053911320865154
5.700885009765625,0.482547260257788,-2.5609172399669884,9.691313894292712,0.0216794144362211,0.7828694581985474,0.021171249449253
5.72093603515625,0.8874818501334637,-2.114868293686211,7.42388041896224,0.0203320365399122,0.7555962800979614,0.2334375232458114
5.7409873046875,0.0266164234425872,-2.060730314654857,5.039034031650424,0.4263696372509002,0.4636819064617157,0.3134640753269195
5.7610380859375,-1.0959203101690858,-2.189392496533692,4.193436024457216,0.6726723909378052,0.7004976868629456,0.1940428763628006
5.781088134765625,-0.9707095839183776,-2.28892225356102,2.8499504549354318,0.6463145613670349,1.4088722467422483,0.1375690996646881
5.80113916015625,0.8292960570160299,-2.296616607455909,-0.4375748401850461,0.8510372042655945,1.6582173109054563,0.3463656604290008
5.821190185546875,3.204433170413971,-2.9863647122457624,-1.8888509223401544,0.8052506446838379,1.033039927482605,0.8598763346672058
5.8412412109375,3.84118384450972,-3.732503105038404,-4.099068472498655,0.3664624691009521,-0.3825143575668335,1.1628159284591677
5.8612919921875,1.8831221694298088,-3.474554179641604,-9.3564962487489,-0.4443129003047943,-2.284942388534546,1.0689764022827148
5.881343017578125,-0.5093026537796482,-0.7848936553835868,-21.724529937183856,-0.275427371263504,-2.638679265975952,0.7181434035301208
5.901394287109375,-0.4659268917812034,3.429007064953446,-29.28777323412895,0.851544201374054,0.0320728458464145,1.0441051721572876
5.921445068359375,1.5247158507667482,2.105605375300348,-22.34374437006712,1.1155188083648682,0.8167917728424072,1.652256965637207
5.9414951171875,-1.0451306186523288,1.158798864212632,-17.530580702507496,1.5650428533554075,-0.566646933555603,1.4806478023529053
5.96154638671875,-4.183065437090397,-0.1441958510972559,-9.76927508585155,1.148449182510376,-1.1287013292312622,0.6529651284217834
5.98159716796875,-4.438647633355855,-0.2135058264277875,-5.1777738092988725,0.2829939126968384,-0.2217186987400055,-0.1434769332408905
6.001648193359375,-2.961297783267498,0.1541087578244507,-3.2993028266757727,-0.0235249176621437,0.4244289100170135,-0.752242922782898
6.021698486328125,-1.1470177524607628,0.4717417520724237,1.1461106475532057,-0.3128848075866699,0.5123202800750732,-1.1932045221328735
6.041749267578125,0.0629316724702715,1.133022910182178,4.608979065576196,-0.5828703045845032,0.3134312927722931,-1.47417950630188
6.06180029296875,1.839636517316103,1.6202976008206604,6.225709329304099,-0.6169171333312988,0.022921148687601,-1.2544090747833252
6.081851318359375,1.7989878421939909,2.190737919793278,7.273966336348653,-0.4664959609508514,-0.139882817864418,-0.9109784364700316
6.10190234375,1.1537200265783816,2.167630454319716,8.74799610210359,-0.2932536900043487,-0.2532188296318054,-0.6120259761810303
6.121952392578125,0.310372684388794,1.9084682076103985,9.908432796651123,-0.0739210024476051,-0.1918695867061615,-0.4279215335845947
6.142003173828125,-0.5471566566819325,1.5427065577484669,11.27387008574009,0.0110215004533529,0.0947535261511802,-0.4123808443546295
6.162054443359375,-0.485720154672861,0.8701254955325275,12.618216656005382,-0.1606542468070984,0.264573723077774,-0.4434258937835693
6.18210546875,0.1099566411586478,0.4659848690461367,12.812773597943782,-0.3844519555568695,0.1969030797481537,-0.3962008655071258
6.202155029296875,0.7252006725735962,-0.0477417751882225,12.18266601512432,-0.4996244311332702,-0.0026217638514935,-0.2705925405025482
6.222206298828125,1.2480505344621835,-0.4664644692566245,11.11049387948513,-0.4773983061313629,-0.3714774250984192,-0.1120523288846015
6.24225732421875,0.9014317572917788,-0.7938106829412281,9.582184242010117,-0.3560328185558319,-0.7284244894981384,-0.0666141808032989
6.26230810546875,0.147542385046184,-0.8366393324509263,7.87888511737585,-0.1829157024621963,-0.7809730768203735,-0.1375894397497177
6.282358154296875,0.1085632140388712,-1.0346941995076837,5.681743321889639,0.0217611622065305,-0.4999829232692718,-0.2035108804702758
6.3024091796875,0.2492177940663881,-1.4426839026376603,3.96671751910448,0.2078969478607177,-0.2348612546920776,-0.2634221315383911
6.322460205078125,0.3771949710894375,-1.6854758831739425,2.3358616993904118,0.2912644445896148,-0.0488997735083103,-0.2403862327337265
6.34251123046875,-0.0650678442487493,-2.270145510768145,-0.5361100332170724,0.3286753892898559,0.3929426074028015,-0.3848093748092651
6.362561279296875,1.4669110197909176,-1.956502462939173,-3.885771758776903,0.4904643595218658,0.470867246389389,-0.1255020052194595
6.3826123046875,2.674267140293121,-1.8835081000074745,-4.7135237281560896,0.3376899063587188,0.0401019975543022,0.4604638218879699
6.402663330078125,0.1098133236978203,-3.143338357982039,-6.984553766673803,-0.4544596672058105,-1.5111069679260254,0.2421164363622665
6.422714111328125,-2.161351227919757,-1.8241329509750008,-16.79700339286327,-0.3689996600151062,-2.413074016571045,-0.5126333236694336
6.442764404296875,-1.4098241278260946,1.65469875985533,-23.600075972270965,0.3058433532714844,-0.9540110230445862,-0.2296778261661529
6.462815185546875,-0.2568375300887972,1.9277105220884083,-21.054586018538476,0.3739859163761139,0.5666410326957703,0.5307119488716125
6.4828662109375,-1.350761698004603,0.5947852172866464,-16.052224305725098,0.1762883067131042,0.7008591890335083,0.6502386927604675
6.50291748046875,-2.11915020878911,0.3605868045073002,-12.269895385766027,0.2172185480594635,0.2296710014343261,0.3901229202747345
6.522967041015625,-1.6898368548624216,0.6993070104476065,-7.873902068266272,0.2348569184541702,0.1303405463695526,0.2087954580783844
6.54301806640625,-2.221999465627968,1.6164906097531315,-2.760673504114151,0.1105812266469001,0.6767858862876892,-0.0300074368715286
6.5630693359375,-1.7946438216403129,1.9386860896110532,2.39905085375309,-0.1361008286476135,0.9480790495872498,-0.355449914932251
6.5831201171875,-0.5659236087331548,1.5791487210914492,6.159762985187768,-0.4028306901454925,0.599126398563385,-0.7178787589073181
6.603170166015625,0.9841394127253442,1.634322472911328,7.30048960161507,-0.440865695476532,0.214814692735672,-0.9042605757713318
6.62322119140625,2.770340327125788,1.7316621725484729,7.699935494413971,-0.3102374672889709,0.5983383655548096,-0.5147495269775391
6.643272216796875,2.278142208610475,1.373466574026644,8.323842469027637,0.0791304409503936,0.9512780904769896,-0.1253098249435424
6.6633232421875,1.6848308632686733,0.2809724389139563,10.699600709998608,0.3414807617664337,0.7811720967292786,0.0977521389722824
6.683373291015625,0.5788784039068967,-0.3372941917251795,11.691438495206832,0.5156444907188416,0.017038095742464,0.1006702408194542
6.70342431640625,-0.1642623049071058,-0.8060787744924426,12.210931155622005,0.5310019254684448,-0.638298749923706,-0.1553675234317779
6.723475341796875,0.9492094805762172,-0.7554281991854309,13.184562253010272,-0.1588873565196991,-0.3223053514957428,-0.0389092229306697
6.743526123046875,1.4102781552039083,-0.7468063551820814,11.37290095333457,-0.7357619404792786,0.1531942039728164,0.2244937270879745
6.763576416015625,0.5024353983586654,-0.4672855033159255,6.954129986837506,-0.3627068400382995,0.2045512795448303,0.2854135632514953
6.78362744140625,-0.3250502117019146,-0.8497050771858543,5.261638671943545,0.2115508317947387,-0.1569776386022567,0.1692419499158859
6.80367822265625,0.181190314560756,-1.1246405009578913,4.642456387764216,0.3805206418037414,-0.3362453877925873,0.1155885681509971
6.823729248046875,1.0280349608141928,-1.1893918631359934,3.081863606321812,0.4103538691997528,-0.1062140464782714,0.318097859621048
6.843779296875,0.3448726641554385,-1.0908695295855402,0.9751432555168866,0.5951868891716003,-0.1527966260910034,0.3050016164779663
6.86382958984375,-0.1701787258766591,-1.908721013327688,-0.3160714440196752,0.4915913343429565,-0.3380514085292816,-0.0880360454320907
6.883880859375,0.506864795640856,-2.2619259639553726,-2.9234909074425697,0.3159463703632355,-0.6642650961875916,-0.628090500831604
6.903931640625,0.6479829928584396,-0.9330750689856708,-6.977488066071271,0.7319700717926025,-1.0628864765167236,-0.6062726378440857
6.923981689453125,0.3014890841767191,-0.8402651217326521,-7.90603966628313,0.5126757025718689,-2.131425619125366,0.0682137086987495
6.94403271484375,-3.145676445540785,-0.9289283245697616,-10.85979945526123,-0.612751841545105,-2.4626643657684326,0.1389582306146621
6.964083740234375,-5.073283507254719,-0.5383265402227639,-14.599703776466846,-1.1568593978881836,-0.8659422397613525,-0.3615704774856567
6.984134765625,-4.48062039668858,2.5379610195323825,-16.529023487317563,-1.0476863384246826,0.9653629660606384,-0.157524362206459
7.0041845703125,-2.277553448937088,3.248969646754861,-17.001922738862035,-0.15751314163208,1.4433050155639648,0.7241343855857849
7.02423583984375,-1.9199113926447928,0.5640279677122831,-10.585088195633888,0.206364169716835,1.2108176946640017,0.8843373656272888
7.044286865234375,-2.0835800059750675,-0.9584466799989342,-4.629546637308597,-0.1892055124044418,0.1988475620746612,0.3677811920642853
7.064337646484375,-0.978608009018004,-0.7605129551038146,-1.263759706377983,-0.4842905402183532,-0.3639591634273529,0.0094520505517721
7.084387939453125,-0.1222147593051195,-0.0522018964022397,-0.4563105203151703,-0.3628403544425964,-0.4945857524871826,-0.0143203157931566
7.10443896484375,0.1407053055677563,0.477053083288297,1.258030222815275,-0.0908432900905609,-0.2396430820226669,0.1277953684329986
7.12448974609375,0.8661891059316694,0.3997065164964646,3.266834389269352,0.1266505569219589,-0.3053102493286133,0.3547784984111786
7.144540771484375,1.1997734833534806,0.3909232713863253,5.352364652529358,0.4108656942844391,-0.4979039430618286,0.4622251689434051
7.164590576171875,0.5803485495246946,0.606366495617479,6.115685358530283,0.6372079849243164,-1.1396604776382446,0.1714977174997329
7.1846416015625,0.5968589548207819,-0.2156542366333305,7.43617116073668,0.7428298592567444,-1.0797162055969238,-0.2693182229995727
7.204692626953125,0.9460843342930078,-0.1108564760752022,8.680026727727055,0.4141243398189544,-0.4101815521717071,-0.5677773952484131
7.22474365234375,1.255800710197538,0.6516700108081102,9.46014776188135,-7.26440921425e-05,0.036961480975151,-0.5617178082466125
7.244793701171875,1.5303782604426144,0.9204723386526108,9.558069206929206,-0.2139522284269333,0.2108697742223739,-0.653774619102478
7.2648447265625,2.016604903332889,0.6140652334265411,9.31681948739886,-0.3533734381198883,0.2227120399475097,-0.7289326190948486
7.284895751953125,2.715965762859583,0.1912722211793065,8.171533600232005,-0.3720070719718933,0.1552186012268066,-0.5806995034217834
7.30494677734375,2.4509466068156063,-0.423240609884262,5.454963441738486,0.0371444337069988,0.4520714879035949,-0.3311886191368103
7.32499658203125,0.9904190044514836,0.1805097118854522,3.598171791481972,0.376859188079834,0.6509078741073608,-0.3167336285114288
7.3450478515625,0.6935927975192666,-0.0721986825093626,2.5260195295870305,0.6251074075698853,0.9240094423294068,-0.277837723493576
7.365098876953125,0.976480130143836,0.3713508481711149,1.1318155802190304,0.7964906096458435,1.0111981630325315,0.0483595728874206
7.385149658203125,1.3884034463956951,0.5738045347087085,-1.1394137802630662,0.9514365792274476,0.916373372077942,0.5668706893920898
7.40519970703125,0.42202758083269,0.5544561295077204,-3.148150726699829,1.2030712366104126,0.676794707775116,0.938231885433197
7.4252509765625,-2.3480760149277744,-0.4680712468661367,-4.103291058629751,1.3016217947006226,0.2907628715038299,0.6902657747268677
7.4453017578125,-2.5588150069907307,-1.4826447416260835,-3.602393208569288,0.7114763855934143,-0.1100805699825286,0.2623456120491028
7.465351806640625,-1.529996859909594,-1.3419810101777314,-4.663995434877276,-0.0926717966794967,-0.6269798874855042,-0.1004676222801208
7.48540283203125,-1.278818597691506,-0.949557417231053,-8.986880261546373,-0.5519281625747681,-1.4211074113845823,-0.2894289195537567
7.505453857421875,-2.653127906152606,-0.2922061459161341,-14.643312616568805,-0.63114994764328,-1.7087082862854004,-0.4667846262454986
7.5255048828125,-4.289982089498639,1.420915284552425,-15.599846448683738,-0.396910697221756,-0.5165787935256958,-0.565628707408905
7.5455546875,-2.450611529642343,0.2898842788398266,-10.083805730170011,-0.6490590572357178,0.6725387573242188,-0.2745875418186188
7.565605712890625,-1.4662600085362791,-0.4854335928164422,-4.367175803816318,-1.2471792697906494,0.8730641007423401,-0.514542281627655
7.58565673828125,-0.3267518279880285,-0.6430556194588541,-1.4771230555951596,-1.4906892776489258,0.3624628782272339,-0.7660345435142517
7.60570751953125,1.5288348303928971,0.2623017137788236,-1.1725345440983772,-1.1071237325668335,-0.6197773814201355,-0.6747798323631287
7.6257578125,2.37736947555989,1.0800130583979188,-1.210845862314105,-0.1688185483217239,-1.3690184354782104,-0.369812935590744
7.64580859375,1.5778994516827165,0.883129719338566,0.9305752149939536,0.3683298826217651,-1.523229479789734,0.026060489937663
7.665859619140625,0.2156567208513617,0.1940406629793346,4.336019033530354,-0.1941760629415512,-0.874054491519928,0.1766358762979507
7.685909912109375,-0.4704683711357414,-0.1199168576262891,4.063319698247313,-0.402835339307785,-0.0960946977138519,-0.1306198388338089
7.705960693359375,0.6898980346545577,-0.067835811124742,3.38543329616487,-0.19843290746212,0.5037952661514282,-0.4113529324531555
7.72601171875,1.5565949439778923,0.3412145069740712,4.650986315700411,0.0615775436162948,1.0705217123031616,-0.3341251611709595
7.74606298828125,1.8413602723687883,0.5850241401202977,6.650272127702832,0.2448360174894333,1.2171002626419067,-0.2135037183761596
7.76611279296875,1.3752892594091592,0.4155145456768572,8.061410260736942,0.3350313603878021,0.8029770255088806,-0.1685427874326706
7.786163818359375,0.5822942767649889,0.7636785795278846,7.795103841361403,0.4308509230613708,0.1745544075965881,-0.3070070147514343
7.806214599609375,1.3525570569887757,0.2733645211935043,7.90438020863831,0.4882452189922333,0.1213638707995414,-0.2666611969470978
7.826265869140625,1.6335691703259945,0.1493444660320877,8.052258986032008,0.2121187448501587,0.4632622003555298,-0.1120438426733017
7.846315673828125,0.713581108058989,0.334913068742305,6.518655918323994,0.1513431817293167,0.5194910168647766,-0.1673858165740966
7.86636669921875,0.9030418228369206,0.1887666680991649,4.766270983481407,0.4075740873813629,0.2994143068790436,-0.1638732850551605
7.88641796875,0.534407174821943,0.5017706873722374,2.582587804505229,0.7991416454315186,0.373382955789566,-0.0593537911772728
7.906467529296875,-0.3259031752694398,0.2409106968343257,1.9727362432509656,0.853925883769989,0.7803832292556763,0.0188872776925563
7.9265185546875,0.2823910004749894,0.0462217990793287,1.2757792299956083,0.5996465682983398,0.7772089838981628,0.139419749379158
7.94656982421875,0.4781473082657903,0.3917942090019583,-2.0023650733172893,0.7571156024932861,0.3795845210552215,0.3330731093883514
7.966620849609375,-0.2155791255705058,0.13542276205495,-2.0888082620173694,0.7816554307937622,0.3952637612819671,0.3225985467433929
7.986670654296875,-0.7826738604422658,-1.485167538101971,-3.565644901886582,-0.0596256405115127,0.0966091603040695,-0.0353913642466068
8.006721923828126,0.7480887231428176,-1.323549865952134,-9.85463690905571,-0.6390752196311951,-0.385079026222229,-0.2560224533081054
8.026772705078125,1.236118542997539,0.790171303525567,-15.179755242741107,-0.284160852432251,-0.554781436920166,0.1888652443885803
8.04682275390625,-0.8423552258796989,0.477890045569092,-16.80542284616232,0.0913631990551948,-0.968881368637085,0.3703022599220276
8.0668740234375,-3.1932658797115088,-0.2861119206942618,-13.84526371153593,0.0667706727981567,-0.0013423562049865,0.0406737029552459
8.0869248046875,-1.7157115930922329,-1.2976919327266514,-7.81564277152121,-0.5947689414024353,0.7705069780349731,-0.2019188404083252
8.106975830078126,0.6715330875329673,-1.896353991446644,-4.591479649242759,-1.013991117477417,0.3436892032623291,-0.3722113072872162
8.12702587890625,1.7042691387102007,-1.2127122407078743,-3.8999434919923535,-0.9217804670333862,-0.3464751541614532,-0.3523150682449341
8.147076904296876,2.520096861539781,0.1164196631602942,-2.781721552839875,-0.4356166422367096,-0.7060761451721191,0.0711813792586326
8.1671279296875,1.1725875894598663,0.6575827419832349,0.148974755936861,0.1002896353602409,-0.9891332387924194,0.185389295220375
8.187177734375,-1.0440661312259734,0.2349411209054291,4.592359354686737,-0.171807125210762,-0.9342448711395264,-0.237638920545578
8.207228759765625,-0.0177258455004543,-0.2072951352193951,6.796732270470261,-0.732891321182251,-0.0030166306532919,-0.3778899610042572
8.22727978515625,1.204944821576774,0.6334829044714569,5.42703732393682,-0.8093202710151672,0.638299822807312,-0.3217646181583404
8.24733056640625,2.113592428531497,0.7665744470998644,4.001337581586838,-0.2115807980298996,0.6838656067848206,-0.0847450569272041
8.267380859375,1.5338671254716814,0.543777791365981,5.47293515175879,0.3347943425178528,0.5877617001533508,0.0829395279288292
8.287431640625,0.9421902494639156,0.6708546037495136,6.842552356880903,0.5429641008377075,0.2214408218860626,0.099065400660038
8.307482666015625,0.9261147284537552,0.5412951807700097,8.472991412487625,0.5717798471450806,0.1203014329075813,0.0482664220035076
8.327532958984374,0.6241782658357173,0.3543786705821752,9.15738646581173,0.4367612898349762,0.4628453254699707,0.0375884696841239
8.347583740234375,0.8025852332882583,0.7896263829939066,8.735027899459004,0.1342836320400238,0.7388871312141418,0.1231023967266082
8.367634765625,0.6737481332339346,0.937590646713972,7.247734747505188,0.0980941206216812,0.7159799933433533,0.2557862401008606
8.387684814453126,0.0485556488543748,0.9112374773174524,6.331581441095471,0.2516668438911438,0.7526779174804688,0.3731012344360351
8.40773583984375,-0.9901536315135656,0.940546866171062,5.551777802327275,0.3779711127281189,1.0607112646102903,0.2923673093318939
8.427786865234374,-0.5092839125465601,1.0425076497375965,5.372985415753722,0.1123641282320022,1.4871163368225098,0.6240713000297546
8.447837646484375,-0.5294889345768838,0.6216130184575915,4.878262454935908,0.1540024131536483,1.7170662879943848,1.0111764669418335
8.4678876953125,-0.8400690877038985,-0.139125562095642,-0.066793316334486,0.5552069544792175,0.4802041947841644,0.5750042200088501
8.487938720703125,-1.6589552482560277,-0.1442892284691333,-1.6721090366005895,0.7770490646362305,0.0677850916981697,0.4273719191551208
8.507989501953125,-0.6219063023157417,-0.2474985507920384,-3.2467338505268093,0.7194477319717407,-0.0014187092892825,0.5448042154312134
8.528039794921876,-0.4205963789857924,-0.9196506470061838,-3.689645375564694,0.1914184987545013,-0.0137652652338147,0.3926210701465606
8.548090576171875,-0.5188413568995893,-1.8990911613255737,-4.938412679994106,-0.5499880313873291,-0.5349417328834534,-0.021944873034954
