timestamp,acc_x,acc_y,acc_z,gyro_x,gyro_y,gyro_z
0.09473193359375,0.5518070763036609,-0.931277810305357,-4.767604277911782,0.134735569357872,-0.8755144476890564,0.1117179170250892
0.114781982421875,-0.0804280200637877,-1.8155638600721955,-6.7270017316401,-1.167358160018921,-1.1796917915344238,-0.1480620354413986
0.134833251953125,0.0415560722906142,-1.5509773963570594,-11.027007787024974,-1.7851072549819946,-1.4763203859329224,-0.2380142956972122
0.154884033203125,-1.6601622859582303,-0.2571969379857182,-17.455811000466344,-1.323985934257507,-0.9848048090934752,-0.4146789610385895
0.17493505859375,-1.6177280425935985,0.7539588572852313,-17.670998057979343,-0.9756632447242736,0.17740398645401,-0.0768869817256927
0.194985107421875,-0.1512630860697478,0.5119681101292372,-12.469642882084846,-0.921450138092041,0.4546225368976593,0.4079623222351074
0.2150361328125,-0.6615593174640089,0.1669439817391335,-8.228159742817283,-0.4079931080341339,-0.3911768198013305,0.2253846079111099
0.235087158203125,-1.3813311699219046,0.02660422154814,-2.628635854452848,-0.101714089512825,-0.4996554851531982,-0.1331832706928253
0.255136962890625,-1.4056016878254711,0.4423012841850519,2.5716332797706127,-0.6366291642189026,0.239260122179985,-0.2135143131017685
0.275188232421875,0.0868348183661699,0.9845286312386392,4.380045222261548,-1.0160541534423828,0.8666249513626099,-0.0622755847871303
0.2952392578125,1.971673728585988,1.762455077958107,4.060933679893613,-0.4435064494609833,0.8284980654716492,0.2680876851081848
0.315289794921875,1.454430746793747,2.1655580319598315,4.678488655132055,0.5667819976806641,0.4456697702407837,0.4415346384048462
0.335340576171875,-0.2271567141069099,1.7700252209514378,5.974105389019846,0.6675556302070618,-0.761257529258728,0.8707722425460815
0.3553916015625,-0.7016290236543864,1.6924818164132531,10.477351459014416,0.7817888855934143,0.4365310966968536,0.1745838224887848
0.3754423828125,-1.1183427159879356,2.075352275855839,14.530407537400722,0.3957975506782532,0.6896948218345642,-0.5694932341575623
0.395493408203125,1.634688822005689,1.4605968682080506,14.542228908097742,-0.4076083600521087,0.8947905898094177,-0.0452638566493988
0.415543212890625,4.415809194082022,0.3243189017526805,14.764931748068332,-1.226717829704285,0.6860689520835876,0.5101122856140137
0.43559423828125,1.5076931120343506,1.3790379444181915,11.477744306600092,-1.0521175861358645,0.9824993014335632,0.4504644274711609
0.455645263671875,0.9119521283928304,0.5824417224116623,10.074288544762132,-0.8812682032585144,1.1672972440719604,0.4585737884044647
0.4756962890625,0.3516942538037896,-0.0036592531599104,10.892593471360206,-0.763758659362793,0.9133750200271606,0.4896146059036255
0.495746337890625,0.4401732591804116,-0.6032751785386353,9.89683705140352,-0.5873169302940369,0.4892561137676239,0.5820887684822083
0.51579736328125,0.5254672047801315,-0.7401983352191746,9.637930094629526,-0.7765417098999023,0.6091006994247437,0.9307052493095398
0.535848388671875,0.1889301150325685,-1.2277356223165987,7.827583969205618,-0.8050108551979065,0.949063241481781,1.336452841758728
0.5558994140625,-1.5695950030654668,-2.0944903993070123,3.30171339494884,-0.1487770825624466,0.5318867564201355,1.3188583850860596
0.57594921875,-2.6347867782980203,-2.890378911435604,-0.9737450791567565,0.3289012014865875,-0.1335058808326721,1.1210933923721311
0.596000244140625,-1.6620780564516782,-4.452073808901012,-0.4620481871843337,-0.6151609420776367,-0.8993470072746277,0.77147376537323
0.616051513671875,-1.368985044698417,-4.363951873333752,-7.776935147464274,-1.470991134643555,-1.6982322931289673,0.2078912407159805
0.636102294921875,-1.002667733715102,-0.559419597133994,-23.47768410283327,-0.873379647731781,-1.681372046470642,0.0492525734007358
0.65615234375,0.6961500807866454,3.465742804415524,-33.56162894921302,0.3216751217842102,-0.7265498638153076,0.552431583404541
0.67620361328125,0.5982133651044219,3.9979789188086974,-31.646866171503063,0.9693408012390136,-0.3137960433959961,0.8813574910163879
0.69625439453125,-1.8218239433802663,3.2457138598293063,-24.661817899310588,0.9931227564811708,-0.1412334442138672,0.8017935156822205
0.716305419921875,-3.433909742303193,2.7470523905187845,-17.368564094167947,0.6933403015136719,-0.3568124771118164,0.2727238237857818
0.73635546875,-4.08472693567425,2.284259230186045,-12.448249380922316,0.2563105523586273,-0.3571577370166778,-0.5186073184013367
0.75640625,-2.266053711409867,3.08013342152834,-9.11672653864324,-0.0140354987233877,0.3850734829902649,-1.0148065090179443
0.776457275390625,0.6652982847966253,4.218696137920022,-5.432459348985552,0.030838169157505,1.0789943933486938,-1.0747634172439575
0.796508056640625,3.785728499269485,3.596250468030572,0.970614379915595,0.1017097681760788,0.8141242265701294,-0.7176402807235718
0.816558349609375,5.616489636212587,2.5244158937826757,6.044258537176251,0.1402374655008316,-0.1299681365489959,-0.0684457495808601
0.836609375,4.325860627609491,1.4431025664411483,9.310078196445106,0.1016441583633422,-0.751278281211853,0.3396680653095245
0.85666015625,1.5812315187148749,1.4115376537457107,13.737714021921157,-0.3521242439746856,0.2517552673816681,0.6354236006736755
0.87671142578125,-4.314073159182072,-0.644939533509314,14.611948341012,-0.4245002269744873,0.9287060499191284,-0.3208750784397125
0.896762451171875,-8.123620925456285,-2.5821859457060694,14.53430863649249,-0.0449299179017543,0.7668702602386475,-1.3687543869018557
0.916812255859375,-6.0672244022220365,-3.637257601201534,16.23608800421357,-0.3401068150997162,0.8927250504493713,-1.8575276136398315
0.936863525390625,-1.445321849925816,-3.509706157043576,18.01077478723526,-0.9619002938270568,1.0401372909545898,-1.4516721963882446
0.95691455078125,2.0523633221954105,-2.886832032608986,12.528558012390135,-0.3492840826511383,0.4905404150485992,-0.8651573061943054
0.97696533203125,1.5191260679356753,-0.6905807562217116,7.252540686482191,0.9040249586105348,-1.0544534921646118,-0.8251388669013977
0.997015380859375,1.3491691681161522,-0.6581074234444647,12.370345472508667,0.5073180794715881,-1.2765315771102903,-1.0179632902145386
1.01706640625,1.2943462755605577,-0.6357064257398247,15.64070452877283,-0.5703048706054688,-0.4095620810985565,-0.9769049286842346
1.037117431640625,4.417677033780515,0.7974926593896001,12.866708601748943,-0.9138674736022948,0.6354401111602783,-0.1974235922098159
1.05716845703125,5.65537027874887,0.7745186110373586,8.86679900713861,-0.5887485146522522,0.5703306794166565,0.8548310399055481
1.07721923828125,3.658105158919096,-0.1241932563038542,9.11355726095736,-0.1092597767710685,-0.367719829082489,1.1930302381515503
1.09726953125,0.0403792105309665,-1.5239951352767644,9.043039371141791,-0.1593861430883407,-1.0441592931747437,1.0636123418807983
1.117320556640625,1.3952009975813329,-2.581578627462685,8.503965811944008,-0.6127326488494873,-0.8619744181632996,1.1803025007247925
1.137371337890625,0.7609815955288708,-2.8333874426692724,4.155049887439608,-0.9806395173072816,-0.0584613308310508,1.2817949056625366
1.157422607421875,0.3123459572231397,-3.299900208047032,-0.2189765129238366,-1.844781875610352,-1.0349223613739014,1.3024916648864746
1.1774736328125,-0.1215772285865619,-1.6413374662399292,-13.86102008359432,-1.9995254278182983,-4.336080551147461,1.1089231967926023
1.197523193359375,-3.4354347599133845,3.463899806897342,-33.956667546963686,-1.1366634368896484,-4.9917311668396,1.0820733308792114
1.217574462890625,-7.727965072590112,7.403804430139064,-49.32267718272209,0.6591774821281433,-0.9953784346580504,1.030852437019348
1.237625244140625,-11.60348899359703,8.252939963808656,-46.03086500406265,1.6350836753845217,1.900848150253296,0.3531913459300995
1.25767626953125,-11.107813262099029,6.449050467178225,-29.42756515117884,1.8241100311279297,2.171419382095337,-0.632704496383667
1.277727294921875,-4.7426177206933495,5.056760826998949,-16.731761397624016,1.565272569656372,1.3157668113708496,-0.8857852220535278
1.29777734375,1.4133826970905066,4.133993363146484,-8.085425927096605,1.1655961275100708,0.647803008556366,-0.4473710060119629
1.317828369140625,2.842813442662358,4.115653112074733,-4.214986762008071,1.0447641611099243,0.5567703247070312,-0.1281591653823852
1.33787939453125,2.401282119936496,2.8755323476985097,1.3347498898804186,0.8453823924064636,0.7056282162666321,-0.2345848083496093
1.35793017578125,1.6615967026755212,2.081156870481372,6.071186876112223,0.6839504837989807,0.3202517628669739,-0.4518547654151916
1.3779814453125,4.569888287420571,1.998966224659234,11.111503933310509,0.0744142532348632,-0.3210781514644623,0.0735633820295333
1.398032470703125,5.926833350235223,2.6062720469534395,12.500358338344096,-0.0648814141750335,-0.215654119849205,0.7649912238121033
1.418082275390625,2.0224396008357406,2.416668343508243,11.298352200567722,0.074353203177452,0.144264742732048,0.7313922643661499
1.438133544921875,-0.7139677692890167,0.646421807956323,14.604008195662498,-0.0688771232962608,0.3136862814426422,0.2879257500171661
1.458184326171875,-1.9705603605166075,-0.9106076549813152,15.458282261264324,-0.1663242131471634,-0.0858452767133712,-0.1798164546489715
1.4782353515625,-1.9601032639101144,-2.3629075272262097,16.075787552142142,-0.3505068719387054,-0.6031977534294128,-0.5039210915565491
1.498286376953125,-2.4491154458656905,-3.2002339651584624,17.618780379486083,-0.9556431770324708,-0.415838360786438,-0.6365495324134827
1.51833642578125,-2.100213891520351,-3.144280607268214,13.018843283021448,-1.0124694108963013,-0.0600911378860473,-0.7477375268936157
1.538387451171875,-0.9406411203257738,-2.8634415124103425,10.874842710614203,-0.8153209090232849,0.0149583127349615,-0.9182215332984924
1.5584384765625,1.2640114891819656,-2.592375039026141,9.782770527240633,-0.5451977252960205,-0.0575161427259445,-0.8351966142654419
1.578489501953125,2.995253828883171,-2.077398686991632,9.53873848351538,-0.3911373913288116,0.1194008365273475,-0.4869823157787323
1.59854052734375,3.975038188204169,-1.74792576347664,9.374784769633411,-0.3574534952640533,0.383567065000534,-0.0377356633543968
1.618590087890625,3.7522941394403575,-1.605617333561182,9.065747462034224,-0.1742218285799026,0.428541749715805,0.2823079824447632
1.638641357421875,3.052139499187469,-1.0248261548355222,7.601755106168984,0.0019648310262709,0.5716700553894043,0.6621412038803101
1.6586923828125,3.554345801497996,-0.925357334215194,6.275043561315536,0.1999762803316116,0.6504402160644531,1.2754122018814087
1.678743408203125,3.559657351909577,-0.7496577990904449,4.304254945001006,0.3160707354545593,0.2110379338264465,1.8999733924865725
1.698794189453125,1.5958286377355455,-2.2224660602264104,2.652245862621069,-0.0263714808970689,-0.9712883830070496,1.897529363632202
1.718845458984375,0.0458951244082301,-3.364206383740901,-5.574899734717607,-0.3684450387954712,-2.6741697788238525,1.698533535003662
1.738895263671875,-0.7224209787271917,-0.3383624054785817,-21.445488539397715,0.180671751499176,-3.441220283508301,1.8008747100830078
1.7589462890625,-6.3727814664900295,2.7271874140977856,-35.55519229191542,0.9383291006088256,-2.089728116989136,1.3046889305114746
1.778997314453125,-10.717231059235331,3.340926630440354,-38.10068925991058,1.4710181951522827,0.0269917957484722,0.4450284242630005
1.79904833984375,-9.46384135570228,4.298119218724966,-33.195867883872985,1.7389848232269287,1.535212159156799,-0.1198904514312744
1.819099365234375,-6.718316905403137,4.3044545592263335,-21.595086395668982,1.5254509449005127,1.889465570449829,-0.4521384835243225
1.8391494140625,-3.132406921862066,3.268916456240416,-12.283109087604284,1.3058816194534302,0.6331131458282471,-0.6352750658988953
1.859200439453125,-0.2171590151730924,3.204436093023419,-7.044812712803482,0.9921727776527404,-0.0156378205865621,-0.5254160165786743
1.87925146484375,0.2162176426697522,3.531177984139323,-2.392213701209426,0.6197779774665833,0.4642959237098694,-0.5287056565284729
1.899302490234375,-0.2014789962865412,3.26682825178951,3.002732786461711,0.0936863273382186,1.063084363937378,-0.7272614240646362
1.919353271484375,0.6341381535097956,2.894590391650796,7.361333654156327,-0.1949018836021423,1.039779782295227,-0.8237889409065247
1.939403564453125,1.3025867190308869,2.5388988849043845,10.93512562214136,-0.3549590408802032,0.6600838899612427,-0.6732773780822754
1.959454345703125,1.3819606999970973,2.4342918246127665,13.319998312938212,-0.3711346983909607,0.4104463756084442,-0.3000982999801636
1.97950537109375,1.2012222208570689,2.161445043683052,13.400786252355577,-0.2016529738903045,0.4777921140193939,-0.0067620212212204
1.999556640625,-0.7626582965694367,0.5248128325246274,15.599445466667412,-0.3835780024528503,0.3718979358673095,-0.1817336827516555
2.019607666015625,-2.3929992986291646,-0.7213386633832007,17.505752550721166,-0.8322762846946716,0.3138857185840606,-0.6778721213340759
2.039658203125,-2.441554216831177,-1.470156139191985,16.03962902804613,-1.1642080545425415,0.4521563947200775,-0.9454650282859802
2.05970849609375,0.0853335469577461,-1.4128198025107384,13.66512341748476,-1.2108579874038696,0.2048413008451461,-0.867564857006073
2.07975927734375,1.927844377601147,-1.1985570933010428,10.51365260645151,-0.8617619872093201,-0.522314727306366,-0.5900305509567261
2.099810302734375,2.187798797601461,-1.297066932696104,8.960853255364299,-0.576429009437561,-0.9103647470474244,-0.2840870916843414
2.119861328125,1.3699138499811292,-1.7533023419484497,7.782189999252557,-0.4012279808521271,-0.9298455119132996,-0.1664213836193084
2.139912109375,-0.0318808285105042,-2.2505144892334936,5.923711418822408,-0.2641401886940002,-0.3609411418437958,-0.5107755661010742
2.15996240234375,-1.0551402637522669,-3.044464142253995,5.070948342305422,-0.2899538278579712,-0.0188209731131792,-0.8694978356361389
2.180013427734375,1.7860304532043634,-1.502457987859845,3.3331969129711387,0.0860081613063812,-0.0824409574270248,-0.3792986869812011
2.200064208984375,1.684756921249628,-1.7197035853378473,-0.8405933307737111,1.0199863910675049,-0.2943179011344909,0.0033126748166978
2.220115478515625,1.922308370783925,-1.4675205299913885,-1.080623737642169,1.264420986175537,-0.5556305050849915,0.5331621170043945
2.24016650390625,0.4830762891005724,-1.669618973350525,-1.5424293482422828,1.14898943901062,-1.1039378643035889,0.6078568696975708
2.26021630859375,-0.9550992692671716,-2.1512441137947143,-3.689159053352475,1.0615103244781494,-1.4269464015960691,0.4467343986034393
2.280267578125,-1.84884595194906,-2.2094696544006465,-7.115443999865651,0.7984896898269653,-1.8000423908233645,0.3381839096546173
2.300318359375,-3.028284284086525,-1.1125080915503205,-15.349650037109852,0.742877185344696,-1.7581491470336914,0.1240791380405426
2.320369384765625,-3.8078526527941214,-0.2992531418181955,-22.209231854724884,1.3357020616531372,-0.511561930179596,0.1137197986245155
2.34041943359375,-4.634098893785477,0.9044551237009464,-21.3933702296257,1.6841641664505005,0.1869488209486007,0.0743569955229759
2.36046923828125,-4.246177434563637,0.2187825977869331,-14.781170935207603,1.481227159500122,0.5155328512191772,-0.1783452332019806
2.380520263671875,-5.969459024518728,1.4651380187690255,-10.374382082927228,0.5715740323066711,0.6811259984970093,-0.538657546043396
2.4005712890625,-3.9565930154532194,0.6343620253935456,-6.513666439473629,0.0657131895422935,0.3780611455440521,-1.066672921180725
2.420622314453125,-0.7663817010067403,1.6785988370113074,-5.463989628759026,-0.0420090071856975,0.1622280478477478,-0.9449111223220824
2.44067333984375,1.403251617567986,2.6121339247241613,-2.195832466453313,-0.1724571287631988,0.3268130123615265,-0.5713534355163574
2.46072412109375,0.2147783305816352,2.864326770812273,1.5205202987730502,-0.3722937703132629,0.0778664201498031,-0.8607655167579651
2.4807744140625,0.926013752297312,3.1539070982694626,4.778917699086666,-0.4974727034568786,-0.8873788714408875,-0.8080025315284729
2.500825439453125,1.7193632474675773,3.5811660038843747,4.0467368122369045,-0.2491489499807357,-1.3347575664520264,-0.324600875377655
2.520876220703125,-0.5476397274911403,2.5514167134329675,4.443094675892591,-0.464003711938858,-0.3481120467185974,-0.5892745852470398
2.54092724609375,0.6296591083995997,1.8694639386944472,4.876817516824603,-0.5326656699180603,0.4973201751708984,-0.6443715691566467
2.560978515625,2.008646637804806,1.300740945033729,5.393445435458421,-0.1018871739506721,0.5230918526649475,-0.5089373588562012
2.581028076171875,2.524846394154429,0.9085030839174986,7.041947386500239,0.2034104913473129,0.6794432401657104,-0.3527311086654663
2.601079345703125,2.058161340949684,0.6626422173298895,10.246514412426947,-0.0267204064875841,0.8709790706634521,-0.1861934661865234
2.621130126953125,1.3599670409843323,0.7483293269656598,10.728118363952635,-0.1512201726436615,1.04737651348114,-0.3268979489803314
2.64118115234375,0.9256067058663816,0.3587463642723858,10.103946016401052,-0.0781778320670127,0.8943804502487183,-0.4549633264541626
2.661232177734375,1.5303724152237177,0.3196551477253437,8.925408432495594,0.176690399646759,0.3601287305355072,-0.3935385942459106
2.6812822265625,1.893399671685696,0.4062751542970538,7.886167091077565,0.3106265664100647,-0.012700093910098,-0.3638048470020294
2.701333251953125,1.870178224443644,0.8280623505026101,7.211992987516522,0.562905490398407,0.0326928198337554,-0.3315066397190094
2.72138427734375,1.851985857409984,0.8284330835111439,3.731638012641668,1.2601912021636963,0.1674263924360275,-0.1748042553663253
2.74143505859375,1.575721376991272,1.0898982003353537,1.9406962603896856,1.9321690797805784,0.4458666741847992,-0.2349778413772583
2.761486328125,0.5576750915542245,0.4298682113304733,2.263711824458837,1.9072630405426023,0.3258501291275024,-0.430246502161026
2.781536376953125,0.6537589459113776,-0.963307271772623,3.3033892192065712,1.2409778833389282,0.7191097140312195,-0.2098634839057922
2.801587158203125,0.6264319630466402,-0.8174325276777148,-0.367061042022705,0.5625169277191162,-0.0766941234469413,0.0799450576305389
2.821638427734375,1.2396383876867592,0.4332596073344349,-6.567220335006714,0.2376181930303573,-1.3558257818222046,0.8767988085746765
2.841689453125,1.5198858002617954,-0.1979892544746399,-9.219729817000031,0.0246573779731988,-1.8303589820861816,1.3765219449996948
2.861740234375,-0.1698174182835966,-1.5129647688269614,-13.177445114481449,-0.2096526622772216,-1.7414257526397705,1.2877042293548584
2.88179052734375,-3.6217391295522448,-1.9702789132267235,-15.710402918899058,-0.2030228823423385,-0.8040339350700378,0.9131960868835448
2.90184130859375,-5.261655623078346,-1.8835592456728216,-13.960234491062163,-0.4767513871192932,0.5297451019287109,0.5311834812164307
2.921892333984375,-4.398736186467111,-2.5492554437458512,-9.258927270400523,-1.0341365337371826,0.8303343653678894,0.0986242517828941
2.941943359375,-2.106172069272399,-2.705392346397042,-5.793598599743842,-1.2044647932052612,0.1225996762514114,-0.2314667999744415
2.9619931640625,-1.3699731789529324,-0.8617579916164279,-5.086126037693023,-1.0379773378372192,-1.0007987022399902,-0.5636643171310425
2.982044189453125,0.9509753212049604,0.7154872339412569,-4.048545322963595,-0.5690082907676697,-1.7438853979110718,-0.37489715218544
3.00209521484375,1.8778757932089267,1.149461711546779,-1.3544243121653794,-0.3957786858081817,-1.4678019285202026,0.2219262272119522
3.02214599609375,0.1459903332985937,0.7876277565225959,3.719159054818749,-1.1493178606033323,-0.2752696871757507,0.4806998670101166
3.042197265625,-1.0749332709155976,-0.6119669459730387,6.350695306888222,-1.895627498626709,0.12653648853302,0.0670317560434341
3.0622470703125,-0.8563412272647023,-0.362794032227993,5.263230325049162,-1.9384088516235352,-0.6129083037376404,-0.677879810333252
3.082298095703125,1.400510209905356,0.270310102058947,4.330642016667127,-1.7301907539367676,-0.9085191488265992,-0.8553830981254578
3.102349365234375,3.0507033289045093,0.0239489577990025,4.614570601972937,-1.150154709815979,-0.3214928209781647,-0.408068835735321
3.122400146484375,2.506023328001797,-0.1222258652210235,3.5639866132855413,-0.071742370724678,0.446401298046112,-0.120541013777256
3.142451171875,1.5961732133895157,0.0970241308819502,5.049918413758277,0.6887744069099426,0.9672176241874696,-0.1763784438371658
3.16250146484375,2.046492676596344,-0.6932854851357638,7.593485874995589,0.8114529252052307,0.9452149868011476,-0.3329336941242218
3.18255224609375,1.5393107778303323,-0.4872044018812477,8.584523449736833,0.5929145216941833,0.4606722295284271,-0.6893593072891235
3.202603271484375,2.7306182653293014,-0.1379477504879236,8.236185228362679,0.2084662169218063,0.2078168243169784,-0.5630578398704529
3.222654296875,3.615226678918302,-0.2639985808245838,6.18428601654768,0.2488714307546615,0.1644501835107803,-0.145347386598587
3.242704345703125,1.9599390132591128,-0.2695652750410139,2.842784216567874,0.8222915530204773,-0.0504894256591796,-0.0022509647533297
3.26275537109375,-0.0756442929185926,0.022614128998667,1.1919634671896695,1.0558923482894895,0.0603938214480876,-0.2569656372070312
3.28280615234375,-0.1016086091279983,0.3636711073234677,0.5787140801906585,1.2919282913208008,0.4315018653869629,-0.3951670527458191
3.302857177734375,-0.5927838143363595,0.7785399024426937,-0.5414093086689711,1.5281327962875366,0.7807117700576782,-0.1106388047337532
3.322908447265625,-0.01221110066697,0.7918971044048666,-0.1409042622059583,1.1320549249649048,0.3136392831802368,0.3527842164039612
3.342959716796875,-0.1809156623378396,0.4522399098753928,-1.5036007281541823,0.1083135157823562,-0.1738276034593582,0.3950591385364532
3.363010498046875,-1.1476353729024529,-0.1543187473133206,-5.094681100070476,-0.656837522983551,-0.2753467559814453,0.24967622756958
3.3830615234375,-1.1303840861111878,0.1076924590863287,-11.001105284005405,-0.3122608065605163,0.1348772346973419,0.4669241607189178
3.40311279296875,-2.269617541371286,1.918479167884588,-15.469060844910144,0.4500768184661865,-0.1082053035497665,0.5929325222969055
3.423162353515625,-2.107790318123996,0.0832858937129378,-13.283351128542424,0.4142920076847076,-0.5860103368759155,0.7265018820762634
3.44321337890625,-3.875879310315847,-1.226009090784937,-10.71693996733427,-0.3184697329998016,-0.8173647522926331,0.357552021741867
3.463264404296875,-5.202315545359253,-1.7874395893499253,-11.00019459890127,-0.7674603462219238,-0.408288300037384,-0.0958634540438652
3.4833154296875,-2.898571570241451,-0.9393231695950032,-10.54890395257473,-0.6909608840942383,0.3372360467910766,0.2369982153177261
3.503366455078125,-0.49970951705873,0.0301348798923194,-7.284237554994225,-0.3877150416374206,0.7952383756637573,0.7742176055908203
3.52341650390625,-0.3044762832939625,0.3661065177768469,-2.544258366110921,0.0476718246936798,0.8193085789680481,0.6689116358757019
3.543467529296875,0.2735213191904127,0.2995895341657102,3.163344788700342,0.1178457513451576,1.0633811950683594,0.7060169577598572
3.5635185546875,2.0119136767767367,-0.4233142596423626,6.828972744339704,-0.1361924707889557,0.6695170998573303,0.9958688616752625
3.5835693359375,0.2724745866164565,1.0532396177627146,6.969649043008685,-0.2820012867450714,0.2620759308338165,1.1557179689407349
3.60361962890625,1.506312179069966,0.618863135227561,7.274169165444373,-0.1051111221313476,0.0451375022530555,1.1514922380447388
3.62367041015625,0.6271221372678876,1.99302514417246,9.126936382490396,0.7713208198547363,1.124484658241272,-0.0527119413018226
3.643721435546875,2.6676462608486413,-0.2332350476399064,11.38888295084238,0.3501535654067993,0.5639418959617615,0.1674555242061615
3.6637724609375,1.738105649599433,1.2848197378024455,13.215875090640782,0.1796159446239471,0.7074201107025146,0.2326582670211792
3.68382373046875,1.1970938158154487,1.2487664276465773,10.65867833250165,0.4632078111171722,0.8010552525520325,0.2007766515016555
3.70387353515625,0.7242877955123782,1.282853698426485,11.233756686538458,0.2805954813957214,1.2145193815231323,0.2125102281570434
3.723924560546875,0.8049594150736927,0.5765446271970868,12.315038011306523,-0.1045934185385704,1.3349934816360474,0.1520316004753112
3.7439755859375,0.3722016928467899,0.8597412449665367,11.602100169587134,-0.2330536991357803,1.055580973625183,0.1102903932332992
3.764026611328125,-0.2325972611930221,1.122644870161265,8.242604447755218,0.1330369114875793,0.6178514957427979,0.0202803164720535
3.784076171875,-0.6691985071055591,0.9648903031803668,7.099156881931424,0.1997509747743606,0.7848936319351196,0.1505344957113266
3.80412744140625,-0.8828578435946255,0.2314402731776237,6.233698574492335,0.1197791025042533,0.8783055543899536,0.1943007111549377
3.824178466796875,-1.6207741322912277,-1.5056553225964306,3.6653228352129457,-0.0940943211317062,0.3922511339187622,-0.034165509045124
3.8442294921875,-0.4991879774026572,-2.408923720730841,0.858783067458868,-0.830450177192688,-0.7488956451416016,0.225962832570076
3.864279541015625,1.502465586644411,-3.177001850391924,-6.135114866143464,-1.4563608169555664,-2.860733985900879,0.6356704831123352
3.88433056640625,-3.085003365652263,-2.063534850681573,-17.906306697022913,-1.3358776569366455,-3.08541202545166,0.3932143151760101
3.90438134765625,-6.26007921641767,-0.5582059835605323,-27.24048063932657,-0.8375244140625,-0.3888171315193176,0.1915109306573867
3.924432373046875,-4.772339197479188,0.221356539928168,-27.807097454488275,0.0336700193583965,1.2555667161941528,0.2412737756967544
3.944482666015625,-2.5017571949899198,-0.1872457421422004,-21.42026992698908,0.5574278235435486,0.3812373578548431,0.3885652422904968
3.964533447265625,-2.7686539814740416,-1.3809757806129752,-13.401183727240564,0.2221640348434448,-0.7858595848083496,-0.1099777221679687
3.98458447265625,-3.615077333575487,-0.7812018151283263,-8.870961387515068,-0.2674717009067535,-0.3846423625946045,-0.7659070491790771
4.004635498046875,-2.1289530792705715,0.4935441262967884,-7.261094579815864,-0.4843689501285553,0.6211131811141968,-1.191152572631836
4.024685546875,0.615402984836325,1.1991985330097377,-2.952313681823015,-0.5664694905281067,0.8042551875114441,-1.3113034963607788
4.044736572265625,3.324078956013918,1.7674223449766635,0.348826881673932,-0.2773482203483581,0.1551733314990997,-1.0884929895401
4.064787353515625,4.670160971769691,1.930323773326725,4.326742671141028,-0.1932181417942047,-0.3842522203922272,-0.6953648328781128
4.084838623046875,3.116668085460365,1.832719285273552,7.869695848748087,-0.2879740595817566,-0.2829102873802185,-0.5167247653007507
4.104888427734375,1.1698363179903477,1.5104744133159518,10.105773231828213,-0.3894000947475433,0.2260658740997314,-0.5230698585510254
4.124939208984375,0.1047666347675025,0.5761086469326168,11.547505825090408,-0.5054901838302612,0.363131582736969,-0.6583299040794373
4.144990478515625,-0.6027806730199605,-1.330739777456224,12.755303405749798,-0.442438542842865,0.2822529971599579,-0.8822831511497498
4.16504150390625,-1.206119710575044,-1.6635764783158895,12.70914020498991,-0.3529164791107178,0.03565439209342,-0.9329866766929626
4.18509130859375,0.5484832656431943,-1.328866969321668,11.527667152154445,-0.2939268946647644,0.030514370650053,-0.716360867023468
4.205142578125,2.1088211224764586,-0.7448987679950893,10.495420199668407,-0.2580876052379608,0.0548607110977172,-0.3672773540019989
4.225193359375,1.859164516867697,-0.5605775349974632,9.626764557492733,0.0506047308444976,-0.2413977086544037,-0.2970830500125885
4.245244384765625,1.0729498420134187,-0.3710570528563112,8.84460354194343,0.1802704930305481,-0.4810421466827392,-0.3815920054912567
4.265294677734375,1.7505708711579442,-0.4776298602629453,8.521990128934382,0.0525510273873806,-0.2139656990766525,-0.2980104982852936
4.285345458984375,1.9647792928971348,-0.0851558523032814,6.822735311254859,0.0276437457650899,0.2609399855136871,-0.1538271158933639
4.305396484375,2.0996678019449115,-0.4290449122488498,4.981933257290721,0.1392896771430969,0.4687696099281311,0.0965264588594436
4.325447509765625,2.3583912188455463,-1.1508514123395084,2.685613879215717,0.4414899349212646,0.3723582327365875,0.341786116361618
4.345497314453125,1.3619585070624949,-2.29647062311396,0.1049666873842477,0.7203945517539978,0.2300595641136169,0.384646475315094
4.36554833984375,0.9433107779264448,-2.990620908385515,-1.5845207695186136,0.6145897507667542,0.5340138673782349,0.4570659697055816
4.38559912109375,1.1412171764232215,-3.807526489579677,-3.189762255504727,0.2454098165035247,0.5207387804985046,0.529711902141571
4.405650390625,1.2435869791820644,-4.226778322088718,-6.764997408035397,-0.2432439178228378,-1.3945438861846924,0.4763157069683075
4.425700439453125,1.6083637096598744,-4.568361808505654,-16.84680699595213,-0.1735774427652359,-2.9548416137695312,0.60069739818573
4.445751220703125,-0.892478124050796,-0.229466635017097,-27.075100692033764,0.9278485774993896,-0.6690762042999268,0.9961176514625548
4.465802490234375,-4.327144237679243,1.0816732466951011,-23.921787468004226,1.2799700498580933,1.0034621953964231,0.8565300703048706
4.485853515625,-3.491702882841229,-0.5688645940884948,-14.606451497161387,0.7373154163360596,0.4520604014396667,0.5656052231788635
4.5059033203125,-3.508159512123465,-0.461060199060291,-11.178681865048407,0.3481512665748596,-0.2243882417678833,0.1693130433559417
4.525954345703125,-3.3290886008694764,0.1733113248139619,-8.671590907815098,-0.0202586967498064,0.0952904373407363,-0.1329479962587356
4.546005615234375,-1.8892066039100288,0.6782713097468018,-5.665895179894566,-0.2747606039047241,0.5379400253295898,-0.3641880750656128
4.566056396484375,0.3901362857270986,1.4615095991387963,-1.7864654836207627,-0.4897617399692535,0.5122652053833008,-0.3478762507438659
4.5861064453125,2.437018473097682,1.2485599452890457,1.6789707390636204,-0.5059781670570374,-0.4763441681861877,-0.2026640325784683
4.606157470703125,2.3287863541767,1.462648686171323,3.002527619278431,-0.2755358517169952,-1.5223495960235596,-0.1632933020591735
4.62620849609375,1.0938838359054175,2.395268850996345,4.675465507918596,-0.2477576434612274,-1.1367380619049072,-0.0618985891342163
4.64625927734375,1.854718351113796,2.5928663296744228,6.53613721447885,-0.1541467159986496,0.3448111712932586,0.2981978058815002
4.666309326171875,0.2129045725990086,2.206290293712169,8.64241683577895,0.208847090601921,1.106295824050903,0.2763160169124603
4.6863603515625,0.0788737032938748,0.778495332648605,11.646860517811774,0.335436999797821,0.5129871368408203,0.0261450745165348
4.706411376953125,-0.8036273627523333,0.2327938797436654,14.089385771632193,-0.1279383301734924,-0.3056858479976654,-0.3375630378723144
4.726462158203125,0.9127931823268532,-0.186604083237797,14.271048160684108,-0.6941732168197632,-0.203998789191246,-0.3019704520702362
4.746512451171875,1.5788474000573158,-0.2046114490933716,11.537098997366428,-0.7763891220092773,0.0967884734272956,-0.2625270783901214
4.766563232421875,1.2239016701769083,-0.0216471836626529,9.261492736974358,-0.5324205160140991,0.3487084507942199,-0.2051191180944442
4.7866142578125,1.8525899607829748,-0.478024850929901,9.42592517428398,-0.4296410381793976,0.2726579010486603,-0.1068365722894668
4.80666552734375,1.9072084168076515,-0.8521807465843856,9.238217659848928,-0.3780114948749542,0.1439495831727981,-0.0693389102816581
4.82671533203125,1.8007215341188012,-0.6493367455549538,6.860915112045407,-0.0097213424742221,0.3226375877857208,0.0587032176554203
4.846766357421875,2.478772625243664,-0.4463179724805057,4.167665623384714,0.2698330283164978,0.6035217046737671,0.4886233806610107
4.866817626953125,2.4467246052064,-0.8681856865763664,2.3622306508779523,0.5003098845481873,0.7509532570838928,0.8077901005744934
4.886867431640625,-0.0847134422980248,-1.5174533124178646,-0.4921335288465023,0.8640667796134949,0.5602718591690063,0.6811666488647461
4.90691845703125,-0.544585308356583,-2.730106516414881,-1.6727321369349957,0.7525126934051514,-0.0329210422933101,0.5609130859375
4.926969482421875,-0.0913524784537032,-2.7704765207260844,-3.8161090244859457,0.1925192773342132,-0.591289222240448,0.7233976721763611
4.9470205078125,-1.5611176820993422,-2.87921454334259,-9.448406470683215,-0.0694383829832077,-1.619565725326538,0.460555225610733
4.9670703125,-2.7963147263377905,-1.5090921651773157,-18.7612856960237,0.3695954978466034,-1.4465970993041992,0.3235127329826355
4.987121337890625,-1.832585575891286,0.7118835103608667,-24.19745734353065,1.1538580656051636,-0.2194768339395523,0.7398518323898315
5.00717236328125,-1.9706299186214804,0.6008715514630079,-19.07624830201864,1.03424870967865,0.3596883118152618,0.8761700987815857
5.027223388671875,-3.717813193167746,-0.1377871530987322,-12.099909405982494,0.437196671962738,0.1834426820278167,0.3798592388629913
5.047273193359375,-3.757996442735195,-0.1851195437684655,-8.187742392233014,0.0011822311207652,-0.0971128344535827,-0.1941190212965011
5.067324462890625,-2.132340237490833,1.2203466811090706,-5.046693606492877,-0.1564856916666031,-0.1132847443222999,-0.4652538597583771
5.087375244140625,-0.4759903494276106,2.8801351653188467,-2.289714280721545,-0.106993556022644,-0.1222435981035232,-0.3546278774738312
5.10742529296875,2.524514677982032,3.294110518729686,1.380753516164422,0.0031237471848726,-0.7277300357818604,0.0976617485284805
5.1274765625,4.10724710277915,2.352446192836016,3.420072063347697,0.1674327105283737,-1.6572701930999756,0.3052123785018921
5.14752734375,3.5576916047945617,1.3405701204665004,5.595320006933808,-0.1040170937776565,-0.7294273376464844,0.3341560363769531
5.167578369140625,1.1692664822131396,1.1562190768525005,7.000905182015895,-0.156263530254364,0.5137873291969299,-0.0912461206316948
5.187628662109375,1.8429338052958248,0.6313571444891393,7.711630608382821,0.0449197962880134,0.93587327003479,-0.2609131038188934
5.207679443359375,3.834729553803801,0.5675622793182731,10.596613798254728,0.0494093857705593,0.5337339639663696,-0.1346864551305771
5.22773046875,3.2025802360236644,0.6541898846745491,11.719888344621658,0.0813599005341529,-0.0418543666601181,0.1838146895170211
5.2477802734375,2.0901346883155405,0.3184735367253422,13.792366818606853,-0.5013741254806519,-0.3192786574363708,0.1534160375595092
5.267831298828125,1.099809938018769,-0.4810977555692196,10.696695636206863,-0.6104936599731445,-0.2759561538696289,-0.0910404399037361
5.28788232421875,0.0522559646770358,0.0016685177341103,7.295445762228965,-0.5433001518249512,0.3446833789348602,-0.3065145909786224
5.30793310546875,1.0704301142774522,0.0720211339853704,7.096974277195334,-0.6761073470115662,0.7811439037322998,-0.2763416171073913
5.3279833984375,2.544332600390911,0.4252732847556472,4.230810938605666,-0.2665858566761017,0.7700794339179993,0.0683500245213508
5.34803369140625,2.8052853837788105,0.7409330792345106,1.8824597599983213,0.4175293147563934,0.5172436833381653,0.4591238796710968
5.368084716796875,1.0595461705610156,0.2008747467830777,2.2931401635169983,0.632960855960846,0.5521010160446167,0.5430787801742554
5.388135986328125,-1.1886213902201503,-0.1902383480869233,1.7918804944068192,0.7001901865005493,1.0669291019439695,0.3307503759860992
5.408185791015625,-2.0987913113713264,0.0461382124491035,-1.0714221940547228,0.9954277276992798,1.3566772937774658,0.214812770485878
5.42823681640625,-0.7246206807285547,-0.5965801378794015,-2.5920026985824105,1.092703938484192,0.6887999176979065,0.3384985029697418
5.4482880859375,-0.0928164135264232,-2.4001101535476743,-4.236235301741957,0.8678988814353943,-0.4741722047328949,0.2786497175693512
5.468337890625,-0.8662093450020998,-2.525751526300609,-6.450000899770855,0.3850156664848327,-1.2573442459106443,0.0064544407650828
5.488388916015625,-1.122377670592442,-3.1245982939377424,-12.370054380607604,0.4660088419914245,-1.648407816886902,-0.4997326731681824
5.508440185546875,-1.4442080434650182,-0.6989549090743065,-17.557513133096695,1.086471438407898,-2.030532121658325,-1.0629101991653442
5.528490966796875,-1.9569145508714016,-0.0728983552113175,-18.743952283906932,2.147320508956909,-1.3086274862289429,-1.1882559061050415
5.548540771484375,-3.3104724554657934,-0.1523091610565781,-12.990519690334796,2.421875,-0.8299907445907593,-1.3268287181854248
5.568591796875,-3.589211070913076,-0.8484522275805473,-8.00682643763423,1.266987681388855,-1.4017958641052246,-1.3219400644302368
5.588642822265625,-1.133655801258236,-2.670581729778647,-3.9852778426676982,0.0004353842232376,-1.7807968854904177,-0.8764206767082214
5.608692626953125,0.5062570390060543,-2.225763494336605,-1.947217186591029,-0.871677577495575,-1.064980387687683,-0.5813401937484741
5.628743896484375,-0.3569830078616738,-0.8672381765931845,-1.2208733353316783,-1.408890962600708,-0.4068916738033294,-0.5116118788719177
5.648794921875,-0.972826210746169,1.1951263151347638,1.03908819668293,-1.6449987888336182,0.3756951689720154,-0.59498530626297
5.668845703125,0.6158380883179605,1.7954279577553272,3.2526252466529604,-1.3303630352020264,0.2740902602672577,-0.2933443486690521
5.68889599609375,1.931828332670778,1.6885349784836172,2.7039029846221205,-0.7371568083763123,-0.6373500823974609,-0.0486009493470191
5.708947021484375,1.9843791886411608,1.3128127833604812,2.7700585875749586,-0.282577782869339,-0.770165741443634,-0.2100838273763656
5.728997802734375,1.3679032408110796,1.26047323205322,4.026477283540368,-0.3453330993652344,0.1747170090675354,-0.3769997358322143
5.749048095703125,1.7452344785660503,1.5488403843283651,5.714062121692299,-0.3721532821655273,1.195694923400879,-0.345864474773407
5.76909912109375,3.3218396526545284,1.96715230563879,6.254899183431268,-0.115676462650299,1.5462498664855957,-0.1251046359539032
5.78914990234375,2.413959522940963,1.9703928949952123,7.124810378625988,0.4197245836257934,1.0894629955291748,-0.2520671486854553
5.809199951171875,2.236526880413294,2.296943355192244,7.517896673265099,0.9155703186988832,0.5525485873222351,-0.3410598635673523
5.829250732421875,1.8104408179700373,2.480172262908518,8.130496656444668,1.2732727527618408,0.2700644135475158,-0.335875391960144
5.8493017578125,1.6858661976657807,2.5595859913632277,9.078220574638246,0.9720281362533568,0.6388189792633057,-0.2913288474082947
5.869352783203125,1.3711875231787565,2.038835732102394,9.275414879342913,0.2257403135299682,0.890468955039978,-0.2204781472682953
5.88940283203125,0.6621480771373957,0.3934066126346588,8.60528683630228,-0.6343863606452942,0.6624302864074707,-0.2194493412971496
5.909453857421875,1.6863536889217794,-1.555081032283604,4.484814341247081,-1.2720398902893066,-0.5721572041511536,0.2206868231296539
5.9295048828125,1.148657190230861,-0.127325818708539,1.3710878621965643,-0.6302939653396606,0.8579346537590027,0.3827337026596069
5.949554931640625,-2.2523061949558554,1.1921131047934292,-3.751041801291704,0.6135246753692627,1.619697093963623,0.3204297721385956
5.96960595703125,-2.894087702825665,0.2264671609401702,-1.75062493943274,0.8985241651535034,1.8563907146453855,0.2592649757862091
5.98965673828125,0.6509080865249037,-0.3765244514167308,0.3774222770392894,0.0605096668004989,0.8911417126655579,1.1086554527282717
6.00970703125,2.340163926628977,-0.9341878525331616,-1.4473872580230236,-0.9346550107002258,-0.676016628742218,1.2011523246765137
6.029758056640625,-1.4507663790673018,-1.7268851674050092,-6.81702687048018,-0.986445426940918,-1.506637692451477,0.4261435866355896
6.049808837890625,-2.852197649340332,-1.6167279256403446,-13.598885396945477,-0.3236572742462158,-2.2038280963897705,-0.1037618890404701
6.06985986328125,-1.6214247051544486,-1.010033367112279,-19.068088376438617,0.5218759775161743,-2.4627773761749268,0.1546578705310821
6.089909912109375,-3.0540429947212338,-0.6622700230166315,-17.891346443778275,0.9532098770141602,-1.0725330114364624,0.581826388835907
6.1099609375,-4.736273904624581,-2.0079802828505637,-11.114791284418104,0.4351672828197479,0.2741899192333221,0.4250779449939728
6.130011962890625,-3.51499608014524,-2.920992660886049,-4.062386216789484,-0.4693805575370788,0.4245235323905945,-0.0132496431469917
6.150061767578125,-1.7900773905076086,-2.103602803306281,0.5532733494639396,-0.8598398566246033,-0.3822012543678283,-0.165989264845848
6.17011279296875,0.8960771714560687,-1.6954150933861731,0.8247779220044612,-0.4998567998409271,-1.4479182958602903,-0.0282056014984846
6.190163818359375,-1.3434791397809982,1.2868050664007662,-0.4673047925382852,0.2816823422908783,-1.4041004180908203,-0.17494598031044
6.2102138671875,-0.2098037570394575,0.9665484456509352,1.073902320432663,0.3559809029102325,-1.1169052124023438,-0.1023786514997482
6.230264892578125,0.3805791336350143,0.497980793569982,5.527377520564198,-0.389786809682846,-0.4359343647956848,-0.3119939565658569
6.250315673828125,0.8240522380784153,0.0285030409067869,7.940095665141939,-1.181536078453064,0.4857454597949981,-0.4622718393802643
6.270365966796875,1.189010462602973,0.1553928062856197,6.33937896310389,-1.3620389699935913,0.4796371161937713,-0.7669235467910767
6.2904169921875,2.623433025112748,0.9650741353146732,3.982516561260819,-0.7024320363998413,0.9189473390579224,-0.862954318523407
6.3104677734375,2.444594899701327,1.8568049481295048,4.39283573025167,0.0171156749129295,1.252965211868286,-0.8548997044563293
6.330518798828125,3.706313309510052,1.5345000165477394,7.448767022937536,0.2306282371282577,1.1061670780181885,-0.4812984466552734
6.350568603515625,3.403719478961825,1.068833054344356,8.332292901986836,0.2294507473707199,0.4039289057254791,-0.2071133852005005
6.37061962890625,3.278210938808322,1.081112397941947,7.485409531158209,0.1696920096874237,-0.0923971980810165,-0.006883259397
6.3906708984375,3.1198318101882934,0.0127530985891818,6.828259627634287,0.2213020920753479,0.4262504577636719,0.2206905931234359
6.410720703125,2.1680065941557287,1.1528934395611286,5.334915505078435,0.3417008519172668,0.7280611991882324,0.3461849391460418
6.430771728515625,1.9491879021421077,1.0627651326075196,4.962969029101729,0.7193160057067871,1.046933889389038,0.5711461305618286
6.45082275390625,0.9161845052655786,0.8778802743777632,2.623648129168153,1.2151888608932495,0.9662557244300842,0.691452145576477
6.470872802734375,-0.2020155873812735,0.999658103570342,1.107500054129958,1.3966171741485596,1.1695317029953003,0.7709999680519104
6.490923828125,-0.7753818768031895,1.28116559920907,-0.0283434664309024,1.5717425346374512,1.5990594625473022,1.0380859375
6.510974609375,-1.6327141609318554,1.200256371499598,-1.3182593583285809,1.7913507223129272,1.7361196279525757,1.3161455392837524
6.531024658203125,-2.4719302120029925,1.3576336296007037,-1.2332692910462617,1.4315946102142334,1.2202372550964355,1.4059447050094604
6.55107568359375,-2.111553762310743,-1.2998445807158947,-2.3677999754428862,0.857941746711731,0.0377898141741752,1.2699933052062988
6.57112646484375,-4.345188136152923,-1.880228055423498,-4.850680036005378,0.0371068120002746,-1.2029895782470703,0.2710671126842499
6.5911767578125,-4.834153848618269,-1.9560604182600971,-7.720651534706354,-1.2490932941436768,-1.4881870746612549,-0.6651439070701599
6.6112275390625,-3.772121414199472,-0.2775549586206674,-11.159963136053085,-2.0525355339050293,-0.0819687917828559,-0.6747819781303406
6.631278564453125,-1.7041192088454962,1.6144512128800153,-14.273616549867391,-1.7853285074234009,0.566484272480011,0.1885189116001129
6.651328857421875,0.90996891868636,0.0425716060087084,-14.954487520718574,-1.2672500610351562,-0.5328909158706665,1.028218150138855
6.671379638671875,-1.2105105659451334,-2.000349349580705,-11.524793642544743,-1.197576642036438,-1.0710978507995603,0.853137195110321
6.6914306640625,-2.5568799472749237,-2.8479180723249917,-8.725733416891098,-1.4298657178878784,-0.8053507208824158,0.2295770347118377
6.71148193359375,-1.408793469604105,-2.7213912950396537,-6.039432139933109,-1.7672107219696045,-0.2744858860969543,0.2532658576965332
6.73153173828125,-0.6202407071910798,-1.4867027848452328,-4.218860973092913,-1.6926939487457275,-0.461378812789917,0.4755325615406036
6.751582763671875,1.3596686425596476,-0.6785935274384916,0.2432341713458299,-1.292280673980713,-0.6261152625083923,0.4368115365505218
6.771634033203125,1.743747162617743,-0.3405475674979388,2.048641671323776,-0.6979267001152039,-1.7008368968963623,-0.2002995908260345
6.791683837890625,1.7246229215614497,-0.493103835183382,5.673261324748396,-0.2246940433979034,-0.8130437135696411,-1.2487633228302002
6.81173486328125,3.8336736150100825,-0.468654599712044,7.213916064533591,-0.6434086561203003,0.2549691796302795,-0.96446293592453
6.831785888671875,5.263294037935138,-0.6442955365173518,8.266541788181662,-0.7743764519691467,1.5942262411117554,-0.5340067148208618
6.851835693359375,3.5689720004826784,0.6775939950071275,5.109450214657187,0.1453425884246826,2.113659620285034,-0.3033285737037658
6.871886474609375,2.9604990341052413,0.3049145285807549,6.194192493534088,1.2093266248703003,1.658469319343567,-0.164608895778656
6.891937744140625,2.4285090034276244,0.2812482601806521,9.249673119843006,1.4607397317886353,0.6304839253425598,-0.1935534328222274
6.91198779296875,1.9276169985860585,-0.4580101638399064,11.263671347808836,1.0821977853775024,0.223247617483139,-0.346710741519928
6.93203857421875,2.229798010549694,0.1502656725302338,13.171712123787405,0.3562804162502289,0.682314932346344,-0.1133413314819336
6.95208984375,1.7120526321932672,0.1229068332225084,11.488277391052245,0.0430306978523731,0.7185478210449219,-0.053813636302948
6.972139892578125,0.7814625118911266,0.4603288160458207,8.863692273294925,0.1364951729774475,0.5897766947746277,-0.0412942357361316
6.992190673828125,0.4659888145688921,0.883285348291695,6.961047218880057,0.3454270362854004,0.6694157719612122,0.1103523969650268
7.01224169921875,1.122475066552311,1.0548372622177005,5.232683211094141,0.5680394768714905,0.7401667833328247,0.5417984127998352
7.032291748046875,1.2588649200737476,0.8428098377794027,3.001704612457752,1.1039201021194458,1.0685021877288818,0.9364610910415648
7.0523427734375,-0.0388117420185357,-0.265442496022582,1.6521382617175575,1.3119465112686155,1.0949184894561768,0.8868696689605713
7.072393798828125,-1.1150034154973925,-3.088252722837031,1.8432763351231811,1.0100016593933103,0.728821337223053,0.4167798161506653
7.092443603515625,0.1747282058745622,-3.958659592594206,-0.3176543292969465,0.3715887069702148,-0.5160315632820129,0.5445247888565063
7.11249462890625,3.1978651902005075,-4.847070905597508,-6.607264760625362,-0.0710471346974372,-2.6595897674560547,0.9931601881980896
7.132545654296875,-0.8738508727312088,-3.1647739447206256,-18.917019863092897,0.6053731441497803,-2.8390934467315674,1.0086286067962646
7.152595703125,-4.3356858560532325,-2.388231938096881,-22.675362342786787,0.7533647418022156,-0.040663368999958,0.952932059764862
7.172646728515625,-5.181598920544982,-1.6025310579836367,-16.542070015895366,0.2842158079147339,0.8629241585731506,0.8631349205970764
7.192697509765625,-4.570415526165068,-2.4849703108400103,-10.916678111302852,-0.4169800877571106,-0.3977658748626709,0.3556667864322662
7.212747802734375,-3.926248438332975,-2.5995202346056696,-9.999062915647029,-0.8316817283630371,-0.7639592289924622,-0.1870405822992324
7.232798828125,-1.2170696321997792,-1.311963473054767,-10.85023317001462,-0.7934024930000305,0.1076126173138618,-0.1364016383886337
7.252849609375,1.5206377876728772,-0.6552069527626038,-8.971589168912171,-0.4533384442329407,0.3273372650146484,0.2061908543109893
7.27289990234375,2.519927057930827,-0.2193774949401617,-2.96757905549407,-0.1874585151672363,-0.1911079883575439,0.4447669684886932
7.29295068359375,2.362773963974416,-0.1752212500885129,2.3744395595878363,-0.1908705830574035,-0.6071833968162537,0.4613880217075348
7.313001708984375,-0.1181486789099872,1.3881672995522618,5.161738035777211,-0.3952012360095978,-0.9482386112213136,-0.1782493144273758
7.333052001953125,0.1566065659895539,1.8142559923440216,5.71480738710165,-0.3906108438968658,-0.3544228672981262,-0.5811418294906616
7.353103271484375,2.38003182663694,2.361809795117378,4.851961307987571,-0.1317702382802963,0.4573032557964325,-0.4488988518714905
7.373154296875,3.244303408509493,2.540039579372108,6.351899421980977,0.2442010045051574,0.4179341793060303,-0.2530017495155334
7.393204345703125,2.714446882729232,1.4352178045406936,7.598971612930297,0.6860923171043396,-0.1108850911259651,-0.3059743344783783
7.413255126953125,1.3124695228807628,1.9820383246034383,9.371065456849337,0.5352699160575867,0.1229030564427375,-0.4388269782066345
7.43330615234375,0.5889153023399413,1.9213439096659424,11.025565187001227,0.1190972477197647,0.908708155155182,-0.6644713878631592
7.453356201171875,3.045752428498864,2.278433008250594,13.564517847919465,-0.685466468334198,1.4173967838287354,-0.2584393620491028
7.4734072265625,1.671403518679738,1.6138927022144198,10.79360819647312,-0.6681093573570251,1.066023588180542,-0.1687666624784469
7.493458251953125,-0.5052602830536663,1.7213509141534566,8.19901197426617,-0.0991462916135788,0.5644915699958801,-0.4835794568061828
7.51350830078125,-0.3925301220610737,0.7645365115314722,7.147333176079392,0.0360344983637332,0.5732232332229614,-0.6620864868164062
7.533559326171875,0.1593532343491912,1.1650886120066046,6.367625983422994,0.0816165208816528,0.7259979844093323,-0.7536237835884094
7.553609130859375,0.4783614624731242,0.6481225474596023,2.507691261214018,0.6598915457725525,0.2318741530179977,-0.7694752216339111
7.573660400390625,-0.2678301218114793,-0.483704138675332,0.7287754623204469,1.0075514316558838,-0.311651200056076,-0.7231426239013672
7.59371142578125,-0.7054742278404533,-1.337755793698132,0.6869038212746381,0.8584688901901245,-0.2902301549911499,-0.8324069976806641
7.613760986328125,-0.2907214603163301,-0.0890571705907583,2.0081296281933785,0.3838470578193664,0.4218975603580475,-0.6916082501411438
7.633812255859375,0.9452014139786362,-1.6917010412991047,-1.9333727856338023,0.2359373122453689,0.0603519268333911,0.316746324300766
7.65386328125,0.32920608927235,-2.5887016112104058,-6.099841892710328,0.1533084660768509,-0.8812593817710876,0.875298798084259
7.6739130859375,-0.0163910167001187,-2.654365046732128,-8.525299107351898,-0.1841188222169876,-2.0278971195220947,0.8472344279289246
7.69396435546875,-0.2252225677065551,-2.7362331826016306,-12.940522025978565,-0.4535377323627472,-1.8539682626724243,0.8353337049484253
7.71401513671875,-3.6306451973244553,-2.664396903663873,-14.71502526912689,-0.7928765416145325,-0.8625068664550781,0.4882731735706329
7.734065185546875,-4.838913610365987,-2.7613006961017845,-14.26348912360668,-0.7977776527404785,0.3109866380691528,0.0328335426747798
7.754116455078125,-3.2606220906257626,-1.8156325413942336,-13.023586093634366,-0.6026290059089661,0.733384907245636,-0.3399806618690491
7.774167236328125,-0.4169344954773783,-0.8810673799812794,-8.423471302515267,-0.7004590630531311,0.6562312245368958,-0.4798458516597748
7.79421728515625,1.375659992417693,-0.9696689157590268,-4.074595710021257,-0.8716525435447693,0.2526054680347442,-0.12338687479496
7.814268310546875,1.5716110190629955,-0.2274514958024024,-2.141163303154707,-0.7965439558029175,-0.7982855439186096,0.1823550462722778
7.8343193359375,0.7360908999003469,-0.2433976913444697,-1.0480506708174944,-0.7896783947944641,-1.3426666259765625,0.1478216797113418
7.854369384765625,-0.3549007947601377,0.2532027537830174,0.0046416883260011,-0.8008137345314026,-0.8783241510391235,-0.149186760187149
7.874420166015625,-0.0346856019992381,0.2750385918855667,2.496154552677273,-0.9764719009399414,0.0101632140576839,-0.3158994615077972
7.894471435546875,0.978317282443121,-0.3232955500543117,4.081501251626015,-1.1149777173995972,0.4321588277816772,-0.3795159757137298
7.91452099609375,1.1472616442192345,0.0138549223512411,4.792233692255616,-1.1678680181503296,0.2070609033107757,-0.3258806765079498
7.934572265625,1.384999044779688,0.0941198608078062,4.297571521714329,-0.583968460559845,0.294871836900711,-0.1935793608427047
7.954623291015625,1.0488831761188804,0.7893865828886628,3.851221254399418,0.529482901096344,0.6229409575462341,-0.1966142058372497
7.974673095703125,0.9410992393568156,0.9452420382499694,6.41621787263453,1.0204460620880127,0.6744736433029175,-0.4056015610694885
7.99472412109375,1.0106993567403406,0.5781435868263244,9.21277634460032,0.8148768544197083,0.4600293934345245,-0.5213833451271057
8.014775390625,0.4025885747388005,0.3344508580580353,9.74008873885572,0.3737910091876983,0.3687021434307098,-0.6627749800682068
8.0348251953125,1.8594827890366317,-0.0733516519367694,9.32327553167045,0.0026226826012134,0.3091710209846496,-0.4290788173675537
8.054876220703125,2.6532249367862937,0.1928320178419351,7.650140659153461,-0.0164795480668544,0.5281378626823425,-0.020911905914545
8.07492724609375,1.4652486395366489,0.2863160649642348,5.302331332337856,0.2709185183048248,0.3212957084178924,0.1167995259165763
8.094977294921875,0.6601647213004529,0.4332648680314421,2.4528373889982698,0.8333666920661926,-0.017792984843254,0.1010360270738601
8.1150283203125,0.6186242849703878,0.927316505458951,1.436459036773443,1.3804636001586914,0.1847345679998397,0.2875483632087707
8.135079345703126,-0.342325536955893,0.9195832808583976,1.7817869704157112,1.5205744504928589,0.6485429406166077,0.4335427582263946
8.155129150390625,-0.4637741341941058,0.6060042381763457,2.556165661525726,1.1970897912979126,0.9139737486839294,0.5556763410568237
8.175179931640624,-0.0822609345793724,0.0388771354049444,2.182351638111472,0.7486559152603149,0.4799120724201202,0.551781952381134
8.195231201171875,1.064788601259142,-0.2520619131848216,0.4963122758358717,0.4475291073322296,-0.6637832522392273,0.4318267703056335
8.2152822265625,0.2896013702452182,-0.7211442367896437,-1.718662697982788,0.2203589528799057,-1.664733648300171,0.2415759563446045
8.23533203125,-0.6211283036805689,-1.628633467489481,-6.569900952392816,-0.3599516153335571,-2.720064640045166,-0.041537657380104
8.25538330078125,-2.1513301846429704,-1.327115741740167,-13.01884094493389,-0.907335877418518,-1.8131494522094729,-0.1973385661840438
8.275434326171874,-3.884066708424687,0.1488943841770291,-14.059266527700425,-1.1524592638015747,-0.0388738363981246,0.0713626891374588
8.295484130859375,-3.706654670293629,0.6006272213131189,-12.881321648991108,-1.1370270252227783,0.8355275988578796,0.2021824717521667
8.315535400390624,-1.4382773382417855,-0.1409839033134281,-10.585235495150089,-0.9565237760543824,0.1922371536493301,0.1601071208715438
8.33558642578125,-0.4499789792060852,-0.3530298863217234,-7.565562095281481,-0.782927930355072,-0.4595673978328705,0.1237170547246933
8.35563623046875,-0.4742686402015387,-0.043512393990159,-4.272629388159514,-0.6614827513694763,-0.5201383233070374,0.1297168880701065
8.3756875,-0.6647600862666964,0.1471729672119021,-0.9851227977395056,-0.6389526128768921,-0.3982994258403778,0.1085390672087669
8.39573828125,-0.8447051500067114,0.2649281167596578,1.7656623495668171,-0.6876457333564758,-0.2118063271045684,0.0400752499699592
8.415789306640624,-1.1526271898403764,0.211876763921231,4.1692900097161525,-0.7650836110115051,-0.0607920922338962,-0.1413421630859375
8.435839111328125,-0.3955015390872955,-0.0829641144126653,5.26811985065639,-0.9758733510971068,-0.3884442448616028,-0.3021824061870575
8.455890380859374,0.3276915930561721,-0.5262221148006617,3.726798755916953,-0.9067721962928772,-0.5587084889411926,-0.4412286579608917
8.47594140625,0.3767101832471787,0.2684894625030458,1.8651298550128936,-0.2220142185688018,0.2464644163846969,-0.4908013343811035
8.4959912109375,0.9823822668597102,0.6004692542724311,2.8832904144793745,0.4764150083065033,0.939017653465271,-0.3500568270683288
8.516042236328126,0.9828721692685036,0.3213280493736267,5.701583163869381,0.7894924879074097,1.140843391418457,-0.3470146954059601
8.53609326171875,1.0146858690932392,-0.1926284580938518,8.277124556994437,0.773295521736145,0.7736470699310303,-0.373029887676239
8.55614306640625,1.290968615821004,-0.0971055986203253,9.074412999048828,0.5502114295959473,0.32560595870018,-0.3279282748699188
8.5761943359375,1.823190701688826,0.2399626023292541,8.080083981546759,0.4538542926311493,0.1885323822498321,-0.2037374526262283
8.596245361328124,1.5015288903161883,0.4738276184357702,7.195757307508587,0.4772281944751739,0.3688796758651733,-0.1097649484872818
8.616296142578125,1.013162605048716,-0.1169167990274727,5.692824103352427,0.5163674354553223,0.3239156603813171,-0.1276582926511764
8.636346435546875,0.7563480905093252,-0.5178359792493283,3.526175061285496,0.7953044176101685,0.001935061533004,0.0376987680792808
8.656397216796876,0.9418942621920258,-0.0529816486030817,-0.0592442161291837,1.4688571691513062,-0.0537118390202522,0.285697340965271
8.6764482421875,0.334498934983462,0.4280106007650494,-0.6181348209530114,1.880239486694336,0.3750460743904114,0.3525584638118744
8.696499267578124,-0.3719168114908039,-0.4824406946107745,0.7995183930635452,1.584810733795166,0.569602906703949,0.3547047078609466
8.71654931640625,0.899650061506778,-1.6834312256038189,0.932161607402563,0.9125773310661316,-0.2355769574642181,0.4767546057701111
8.736600341796875,1.334671710077673,-1.6294234488233923,-1.9496236632108688,0.5727875232696533,-1.0736942291259766,0.5865687131881714
8.7566513671875,-0.1084993184898048,-1.6974433843433856,-4.594247944912314,0.3751731514930725,-1.983843207359314,0.4302292466163635
8.776701171875,-1.4915942101486026,-3.019009383001924,-9.293849530699848,-0.4136724770069122,-3.073998212814331,-0.1694632172584533
8.796752197265626,-3.203988349255919,-1.8955355146706103,-13.455909004640578,-1.0156751871109009,-1.9608633518218996,-0.5021468997001648
8.816802978515625,-4.2769218246564265,0.16738427285254,-15.20362010245323,-1.0667039155960083,0.1342202574014663,-0.1017400026321411
8.836854248046874,-2.938566311499476,0.1129983104094862,-13.895018214786052,-0.7533860802650452,0.9538585543632508,0.2559578418731689
8.856904296875,-1.813148469493538,-0.7280573771789669,-10.965672736096382,-0.4631481766700744,0.4047707915306091,0.1438962370157241
8.876955078125,-1.4599541863903402,-1.1095938115388155,-6.928539033985137,-0.303319901227951,-0.0827723816037178,-0.0947458446025848
8.89700634765625,-1.1914996490702032,-0.996021208372712,-2.9133360086530447,-0.3625758290290832,0.0300821401178836,-0.2722605764865875
8.917057373046875,-0.2748420464001596,-0.6247253052592278,0.3585428045243025,-0.5647779703140259,0.3919939994812011,-0.2798953950405121
8.937108154296874,0.7445487855136395,-0.3978364117756485,2.398891279277205,-0.5835091471672058,0.465379923582077,-0.2271234691143036
8.957158203125,1.1566941470183432,-0.1451744868710637,3.0694746648699045,-0.2837659120559692,0.1797997057437896,-0.2576898038387298
8.977209228515624,1.2703776632130146,0.159161511169374,4.331533997070789,0.0282151196151971,0.0549148954451084,-0.311653733253479
8.99726025390625,1.3372702021382747,0.2917889434173703,4.977205644246936,0.1321419924497604,0.0954539403319358,-0.3645812571048736
9.017311279296877,1.249095221209526,0.6220151695176959,4.998175951561332,0.1700980514287948,0.521611213684082,-0.4319149553775787
9.037361328125,1.4299799038872123,1.0547212346225976,5.844758293616772,0.2203236520290374,1.0993746519088743,-0.3682449460029602
9.057412353515623,1.9621309703454373,1.4337220130249857,7.347075996223092,0.3628243505954742,1.5400067567825315,-0.144941508769989
9.07746337890625,1.641005750067532,1.2589584435760974,7.782155512461066,0.5954768061637878,1.2062700986862185,-0.1214580088853836
9.09751416015625,1.4277837090171872,0.987977602648735,7.425152923116087,0.6556621789932251,0.5386679768562317,-0.155856043100357
9.117564208984374,1.0684141713451594,0.964627706721425,7.801032646888494,0.4811350107192993,0.402469664812088,-0.0401358008384704
9.137614990234376,0.7708743362508714,1.409927588200569,6.758718473896384,0.3412012457847595,0.524972677230835,0.0486663505434989
9.157666015625,0.0027523674480617,1.4739952789634465,5.409077888876199,0.1863893717527389,1.027107000350952,0.103461854159832
9.17771728515625,-1.0580071244254707,1.0964558052852749,4.445058084920048,0.0779677778482437,1.6554052829742432,0.4007450938224792
9.197768310546875,-0.3883778246872126,0.920904592590034,2.9948627837389705,0.3591043353080749,1.4743685722351074,0.6424945592880249
9.217818115234374,-0.0115238855877891,1.5488932835593818,1.5055238051712512,1.1894928216934204,0.1241568177938461,0.3181172609329223
9.237869384765624,1.022809554316103,1.284043492732942,-2.173893021845817,1.4815160036087036,-0.3054965436458587,0.6958256959915161
9.257920166015625,-0.3164468532033264,1.608259957024455,0.3315074980825185,1.1897190809249878,0.0653851181268692,0.8288565874099731
9.27797119140625,-1.7501215199552476,-0.4586375019580125,1.8903841232568024,0.270782858133316,-0.2949030101299286,0.3562034368515014
9.298022216796875,-1.9856452630542216,-1.4960264935076235,1.1617232272267342,-0.4833444058895111,-0.8415639996528625,-0.3362074792385101
