timestamp,acc_x,acc_y,acc_z,gyro_x,gyro_y,gyro_z
0.0960263671875,0.7587301633402704,-0.1543126098334789,4.859779872784018,-0.1360880583524704,0.6516448855400085,-0.7217397689819336
0.11607666015625,1.92349319665432,-0.0450023402869701,5.894192478871346,0.0829193294048309,0.9383528232574464,-0.5913552641868591
0.13612744140625,2.501609310951829,0.1669425204344093,7.9901102806329725,0.0209408346563577,1.3225347995758057,-0.2783434391021728
0.156177734375,2.5658333613201973,-0.3466901619061827,9.6626705681324,-0.0867392495274543,1.2123637199401855,-0.1646838039159774
0.1762275390625,1.3952480515934529,-0.209886759147793,9.205082867488263,0.1877458989620208,0.8078681826591492,-0.340451180934906
0.196278564453125,1.4199991926208138,0.0438005632817745,9.087402829003333,0.4918705821037292,0.6013228893280029,-0.3955552577972412
0.216328369140625,1.490009132914245,0.298274944435805,9.561964460802075,0.5788691639900208,0.8405956625938416,-0.288829356431961
0.236378662109375,1.3521791635870932,0.6279938055358827,9.36734906667471,0.7171828150749207,0.9467165470123292,-0.1320500373840332
0.256428466796875,1.7992285190820694,0.938812297463417,9.552827799144389,0.760196328163147,0.6058151721954346,0.0504279546439647
0.2764794921875,1.4438472473286093,1.0402952343851328,9.861803147423268,0.7056237459182739,0.4108515381813049,0.1922213435173034
0.29652978515625,0.6686923111490904,1.3746179360188544,8.679686535987257,0.8063077926635742,0.6359174251556396,0.3747309446334839
0.31657958984375,-0.0530471150547266,1.8107960611484943,7.58930478991866,1.0301203727722168,1.0502703189849854,0.4904119372367859
0.336630615234375,-0.245337208039686,1.7676520620793104,6.945276233774424,1.1846085786819458,1.0076608657836914,0.3878684341907501
0.356680419921875,0.1650401208791881,1.0996905494228004,7.776306201910972,0.8089438676834106,0.8245431184768677,0.5668030381202698
0.376730712890625,0.4901692430362105,0.1384083537369966,7.215206104344129,0.1161624044179916,0.3599022030830383,0.7268151640892029
0.396780517578125,0.1539594124816358,-0.5170446827411651,1.5836130070239305,-0.1590401381254196,-0.4041027724742889,0.7122271656990051
0.41683154296875,0.4559666022483259,-0.1525727804288268,-6.687008743947744,-0.029932152479887,-1.292932629585266,0.7528222799301147
0.436881591796875,-0.7047614033959806,-0.1782896977484226,-14.214333170771598,-0.1191442757844924,-1.2244293689727783,0.6748128533363342
0.456931396484375,-2.024199888506532,-0.5366846182346343,-18.32888095195293,-0.4052962958812713,-0.3048918545246124,0.2870692312717438
0.476982421875,-1.6265364952102304,0.3709568804174661,-19.017602051782607,-0.5943292379379272,0.5686611533164978,0.3421820998191833
0.497032470703125,-0.6898013693470507,0.2915231320880353,-16.84788134718537,-0.6436276435852051,0.2550268471240997,0.4836006462574005
0.51708251953125,-0.5758296107955276,0.6914538857944309,-14.485311673611402,-0.4406138360500335,-0.4674431681632995,0.3079823553562164
0.537133544921875,-0.8750880133107304,0.4576467373549938,-12.03656359975338,-0.9653792977333068,-0.8699235916137695,0.2186020910739898
0.55718359375,-1.2546969867393374,0.8991656389907002,-9.161853382092714,-1.4721351861953735,-1.164767503738403,-0.1019494459033012
0.577233642578125,-0.5476218265082686,0.5635641495928168,-8.323086682224274,-1.4228639602661133,-0.4333760142326355,-0.3250278830528259
0.59728466796875,0.7098581420131027,1.774950110132992,-4.962957923185825,-1.2357596158981323,0.308161586523056,0.1013392284512519
0.61733447265625,1.753140283254534,2.0396686757951974,0.6157791977375745,-1.0133057832717896,0.703453779220581,0.2628528177738189
0.637384521484375,1.4233619470521808,0.9744073424577712,4.581814579796791,-1.1869676113128662,0.1425885558128357,0.5243151783943176
0.6574345703125,0.3628547494392842,0.6472302747949957,8.945869621244073,-1.2111880779266355,0.191504955291748,0.0461783111095428
0.677485595703125,1.4482529349416493,-0.3171432745022699,8.550206169593334,-1.2343885898590088,-0.117789089679718,0.1686679124832153
0.69753515625,1.5039737992502749,0.4407492324374616,9.230750977230072,-0.7452651262283325,0.4323822855949402,0.3267346322536468
0.717585205078125,0.7624282872058451,-1.0207980683632194,8.421784956863522,-0.4648768305778503,0.406444787979126,0.3728144764900207
0.737635986328125,-0.6131725223705172,-2.082042713405192,9.970704251646994,-0.3928520083427429,1.0326868295669556,0.1604823470115661
0.757686279296875,-0.8238099537551402,-3.69425111579448,12.545981440877911,-0.8124868869781494,0.8386325836181641,-0.0465192198753356
0.777736083984375,-0.4964104024481028,-4.109490205530822,10.402298848378658,-0.7038152813911438,0.3354721367359161,-0.1293536573648452
0.797787109375,-0.388998294673115,-4.163405335591733,8.792750605109333,-0.3776542544364929,-0.1008307114243507,-0.1176107749342918
0.817837158203125,0.6926091202441602,-3.779942317083478,7.72174049898684,-0.1493788510560989,0.0295942761003971,0.1907030045986175
0.83788720703125,0.3983501334514469,-3.817446118308604,7.5380112405329935,0.0096214115619659,0.2434033304452896,0.3288275301456451
0.857938232421875,-1.2169852418519556,-3.8002038916066287,7.409591196846962,0.0855366215109825,0.3276786506175995,0.1675020158290863
0.877988037109375,-1.0176770137332378,-3.342482335449755,7.273379476371407,0.192136526107788,0.4149945378303528,0.0941299721598625
0.898038330078125,0.3379685838554054,-1.8686673814892767,4.657344744816422,0.4387409687042236,0.6751659512519836,0.408399760723114
0.918089111328125,1.2794471048533915,-0.7111801843971014,4.052916377654672,0.3691927492618561,0.9828652143478394,0.8760043978691101
0.938139404296875,0.6769677528675645,-1.2140015498660504,2.950899723371863,0.2023510932922363,0.1519703865051269,0.9897805452346802
0.95818896484375,0.5244279248602688,-1.304047585363686,-2.5012182658076285,0.0244161635637283,-1.679827332496643,0.9738932847976683
0.978239990234375,1.349840783767402,0.0002822510074824,-10.387557206320762,-0.3526469469070434,-3.497957468032837,1.0701899528503418
0.998290283203125,-0.7954158531155436,2.16203570305258,-23.58109537746906,0.1362085491418838,-2.837012529373169,0.8234549164772034
1.018341064453125,-4.003141708399356,3.317588132689893,-29.67312981129885,0.3686312735080719,0.0665440335869789,0.5572712421417236
1.038391357421875,-3.117829530455172,3.43567529067099,-26.80000130987167,0.6802635788917542,0.9732111692428588,0.4199154376983642
1.058441162109375,-1.5725789873123168,2.7701632169932124,-19.75720928924084,0.6630405187606812,0.4199671745300293,0.260477215051651
1.0784921875,-1.2023646688904612,1.8001570321038365,-12.794286339616775,0.1388526111841201,-0.0516299940645694,-0.0614416040480136
1.0985419921875,-0.6744038206636905,1.7701897638633846,-10.891218675875663,-0.0618086904287338,0.1024300158023834,-0.2545194327831268
1.118592041015625,0.6587419219557196,1.8648961923874916,-9.318734965631366,-0.0238736979663372,0.5297871232032776,-0.2684057652950287
1.138643310546875,1.5721717216856776,1.1307579609248786,-4.316473206061125,-0.0416606999933719,0.6741055250167847,-0.26262167096138
1.158693115234375,2.033910989051312,0.6613922172687947,0.6743658267408609,0.0754471868276596,0.4115603268146515,-0.2480490207672119
1.178743408203125,0.9042909461151808,0.0481392135405912,5.859443237051368,0.0997222587466239,0.5018967390060425,-0.3891245722770691
1.198794189453125,0.3473446437595412,-0.2329647062659263,10.764482639753815,-0.0964453890919685,0.9427933692932128,-0.4852747917175293
1.21884423828125,1.132781283446029,-0.2496756756354123,12.739786687666175,-0.0320707336068153,0.8694890737533569,-0.2939390838146209
1.238895263671875,0.36990532553792,-0.8020872206382453,14.342406592977046,0.1406341791152954,0.3633387684822082,-0.2972709834575653
1.258945068359375,-1.4247723983719944,-1.531364787261933,15.514903727674485,0.0551083907485008,0.0496790818870067,-0.535900890827179
1.2789951171875,-1.1240244148861616,-1.6371930599115787,16.956517078471183,-0.3165007531642914,0.0128049114719033,-0.6445146799087524
1.299046142578125,-0.5947829522643238,-1.2445729214794934,14.20802617958188,-0.2888854444026947,-0.1361059844493866,-0.6534370183944702
1.319095947265625,0.7998653798703104,-1.3307992525584995,11.918242340755462,-0.2199685126543045,-0.4315624535083771,-0.4527337253093719
1.339146240234375,1.2095946932092307,-1.0386919639069587,10.793486615920068,-0.2635245621204376,-0.359632670879364,-0.1768647730350494
1.359197265625,0.586052533319965,-1.0652201245442032,8.817428534770011,-0.1569020450115203,-0.2016764730215072,-0.0919570624828338
1.379247314453125,0.0174094730276614,-0.9313492681063712,8.06993726606369,-0.1152790188789367,0.1481646448373794,-0.0127700977027416
1.39929833984375,0.2808639370381832,-0.4183261690314859,7.499453254079818,-0.0289999525994062,0.3702013790607452,0.2199106216430664
1.419347900390625,0.498950150058791,0.0819896616236306,6.681294457954168,0.1890798658132553,0.380422294139862,0.521024227142334
1.439398193359375,-0.184864984485507,0.3285349485451355,6.306475056889653,0.3088211715221405,0.3712380826473236,0.8015353083610535
1.459448974609375,-0.9001011662751436,0.3708465519107878,5.868749410057068,0.2595676779747009,0.2283209562301635,1.0116618871688845
1.479499267578125,-1.9508926602333785,0.3087862554475665,4.403818896558881,-0.0839794278144836,-0.0723340958356857,1.0142881870269775
1.499549072265625,-2.8496348131150007,-0.1886038604865781,0.6594570114225149,-0.6391705274581909,-1.1588765382766724,0.7425583600997925
1.51960009765625,-3.0853181306898594,0.1387201413662172,-8.74945273065269,-0.7116449475288391,-3.127692461013794,0.435183435678482
1.539650390625,-3.531161909787357,1.7788721058823167,-22.846982645773885,-0.0904846042394638,-3.1277294158935547,0.2504968643188476
1.559701171875,-5.309794507825374,3.288018339334428,-29.299049830424785,0.1049026995897293,-0.1558326482772827,0.1080102920532226
1.579751220703125,-4.9217047062993045,2.7551892274841663,-26.355935354101657,0.2310517579317093,0.9546385407447816,-0.0763397514820098
1.599801025390625,-1.8500002365507184,2.2798173022158443,-21.28992388367653,0.4662665724754333,0.241337388753891,-0.0784259065985679
1.61985205078125,-0.0470250782862305,1.9142220949620008,-15.24095702267885,0.2357114404439926,-0.4153502881526947,-0.0632763281464576
1.639902099609375,-0.072395301060006,1.6932678522244096,-12.089084060585495,-0.0239564813673496,-0.6286683082580566,-0.2408793419599533
1.6599521484375,0.2970359772253781,1.2538697421349585,-10.435291601920127,-0.2597077190876007,-0.4691872000694275,-0.4611293971538543
1.68000341796875,0.6278201294694096,1.1337290856901556,-8.364909807953238,-0.3161947727203369,-0.0977837219834327,-0.7253664135932922
1.700052734375,1.4950979804858564,0.8549262459002435,-4.058216822150349,-0.3908262550830841,0.2083264738321304,-0.8699105978012085
1.72010400390625,2.9337407910391686,-0.1328448378583416,1.19546884496212,-0.2654903531074524,0.1933144927024841,-0.8530430197715759
1.74015380859375,1.7001712018720805,0.198902533394657,6.16227701383531,-0.1023718565702438,0.1543135792016983,-0.9737370610237122
1.7602041015625,2.036071528086066,0.2287199996345676,9.669809333971145,0.0998754724860191,0.5000316500663757,-0.8557650446891785
1.7802548828125,1.8142282275542616,0.0420819775945507,13.647529308605192,-0.0106047485023736,0.8285114765167236,-0.7703618407249451
1.8003046875,0.1736900949984788,-0.8722244405731558,15.907110901391505,-0.0327198877930641,0.5688266158103943,-0.9900421500205994
1.82035595703125,-0.4438740133944898,-1.7915188214875757,16.052867279803753,-0.0457709357142448,0.0136779239401221,-1.1296675205230713
1.84040576171875,1.1182927393663673,-1.7262693735942245,16.654873388254643,-0.363568365573883,-0.0355988442897796,-0.9722071886062622
1.8604560546875,1.097766668688133,-1.6191590983100237,14.421712184882162,-0.3866373002529144,-0.1837263703346252,-0.9689064025878906
1.8805068359375,1.675965419767797,-1.1704815570913254,12.207229963016507,-0.3572645187377929,-0.1991535425186157,-0.8125951290130615
1.900556884765625,1.9586165324836968,-0.8708691535066813,11.38155304634571,-0.4538860023021698,-0.0761082544922828,-0.7573548555374146
1.92060791015625,2.092771612690389,-0.3896209931487217,9.073695790690184,-0.369264006614685,0.3536680936813354,-0.613930344581604
1.940657958984375,3.164327369996905,-0.2010714018663391,7.588618561220168,-0.2701364159584045,0.8362846970558167,-0.2263479083776474
1.960707763671875,3.4371690363600846,-0.5679373962409794,6.765787681630253,-0.0474695265293121,0.5622062683105469,0.1077946573495864
1.9807587890625,2.3927782032243905,-0.602029854652658,6.350543915718793,0.2333687841892242,0.2974007427692413,0.5109121203422546
2.00080859375,1.4991332273513078,-0.81355276363492,5.3481683698832985,0.4091515839099884,0.1014647707343101,0.8568969368934631
2.02085888671875,-0.4394692390969023,-0.9522552780129014,4.2937060784578325,0.1666655838489532,0.4156783819198608,1.029460310935974
2.040909912109375,-1.902163992899656,-0.9040788377344608,1.5937871950358151,-0.3873805701732635,0.5319423675537109,1.0168269872665403
2.0609599609375,-3.480032318791747,-2.116282252137363,-5.268401590207219,-0.8979805707931519,-1.1504783630371094,0.4853890240192413
2.081010986328125,-3.991305432394147,-0.9073055446960032,-17.034859378302098,-0.6411997675895691,-2.7482707500457764,-0.0739314556121826
2.101060791015625,-3.3332910209953783,2.4032675946652886,-28.779295304203032,0.030910775065422,-1.339398741722107,0.0922533497214317
2.12111083984375,-2.834612600550056,4.226603842304646,-31.47287972390652,0.7407497763633728,0.8684569597244263,0.5141521096229553
2.14116162109375,-2.3134382706582546,3.224798789833486,-25.805855832242965,1.1681989431381226,1.0249089002609253,0.6251384615898132
2.1612119140625,-1.9193048050537704,2.6939932927653194,-15.654491062062975,0.8654128909111023,0.345032125711441,0.4692072570323944
2.181262939453125,-1.480639247022569,1.848840106730163,-9.753602300423385,0.2203785926103592,-0.3607850968837738,-0.0374464988708496
2.201312744140625,0.8044668092511594,1.929853233205527,-9.417110584187506,-0.0156906135380268,-0.2886004447937011,-0.2103892415761947
2.221363037109375,3.692452249678969,2.242657492122799,-9.950832845485207,0.1622387766838073,0.1709252148866653,0.1508860439062118
2.241413818359375,4.6378977015465495,1.6909908472031354,-5.723512087082862,0.2634866535663605,0.2757466733455658,0.5191598534584045
2.2614638671875,2.619851951755583,0.8972567366294563,-1.091670032313466,0.3695452213287353,0.1917635351419448,0.5850557088851929
2.2815146484375,0.2383094465610571,0.4739537290334701,4.203123305734992,0.3760021030902862,0.5914378762245178,0.4959954917430877
2.301564697265625,-2.163130074160546,-0.391273180802539,7.451790754672884,0.8016345500946045,0.0866275131702423,-0.075419545173645
2.32161474609375,-6.437919416832924,-1.513776669731736,13.295709090334176,0.5302090644836426,-0.5012866854667664,-0.867209792137146
2.341665771484375,-4.028181457109749,-1.321926794794947,17.951370996630192,-0.2002311199903488,0.0923346877098083,-1.0972442626953125
2.361716064453125,-2.2312371034421026,-0.4843913172218948,15.435202998971938,-0.2171361744403839,0.4250577092170715,-1.222081184387207
2.381766845703125,-0.1071471640953328,-0.2119726985763758,14.911410595536232,-0.2192296832799911,0.4291304647922516,-1.0752822160720823
2.40181689453125,1.0405350344903763,-0.3094559714026749,15.2743589415431,-0.3580311238765716,0.2462018132209777,-0.8350947499275208
2.42186669921875,1.8249235168308016,-0.7631511215876787,14.48729320281744,-0.450650155544281,-0.0921270325779914,-0.5985264182090759
2.441917724609375,0.9841664468627422,-0.9379354415636508,13.017300145232676,-0.4148463904857635,-0.372898131608963,-0.7324671745300293
2.4619677734375,1.1781535530239342,-1.137825342027843,11.703383784544467,-0.4287088215351105,-0.303765207529068,-0.7133489847183228
2.482018798828125,3.1396795432135463,-0.9061688688162712,9.573027706608176,-0.263342946767807,-0.2341525554656982,-0.3561782240867615
2.50206884765625,3.495545529744029,-1.3810345250628888,9.094408323851228,-0.1662293970584869,-0.4313264787197113,0.0083957314491271
2.522118896484375,2.0757086880780755,-1.6665231992922722,7.612727751082182,0.124933049082756,-0.3986563384532928,0.0549210645258426
2.542169921875,1.579503818139434,-1.7347995937913656,6.532983718883991,0.212993785738945,0.1590307652950287,0.1392901092767715
2.562219970703125,2.387330605342984,-2.090554813423753,6.239745453441143,0.1372378170490265,0.2250814884901046,0.4192538261413574
2.58227099609375,2.68428467643857,-2.723399419991672,3.7889521374911066,0.1192696914076805,-0.45814910531044,0.7535037398338318
2.602320556640625,2.090126505009085,-2.845715593844652,-0.4860650225877762,0.0087902089580893,-1.275404691696167,0.8896217942237854
2.622370849609375,-0.3052167994629591,-1.433562730810046,-7.866810064178705,-0.320464938879013,-2.018789768218994,0.8719037175178528
2.642421875,-1.5070502840861677,0.798554516467452,-18.950052364122868,-0.4120421707630157,-2.052882194519043,0.8331950902938843
2.662471923828125,-3.700442079389095,3.296563757100701,-29.20316719772816,0.3488038182258606,-0.8318478465080261,0.8770605325698853
2.68252294921875,-5.197606052494049,5.200861254897713,-32.066064227998254,0.9314801692962646,0.422798216342926,0.8582314252853394
2.70257275390625,-5.607249514180421,4.8878155884400005,-25.952608235955235,0.9165875911712646,0.778586745262146,0.5621258616447449
2.722622802734375,-5.125695831537247,4.826685412433744,-20.743279012441636,0.7720933556556702,1.0801714658737185,0.2081830650568008
2.742673583984375,-2.5657182105079293,4.321056442198157,-14.250972171860932,0.3321312367916107,1.154090166091919,-0.013089227490127
2.762723876953125,-0.6744939831651747,3.329028102853894,-10.465756882810592,-0.0435905940830707,0.9296409487724304,-0.1610723882913589
2.78277490234375,2.069142607560753,2.748660410237312,-7.799609920608997,-0.2872654497623443,0.9044221043586732,0.05845907330513
2.80282470703125,2.719580738486349,2.327825254059583,-5.725757820183039,0.0661374032497406,1.235751986503601,0.2192872911691665
2.822875,1.736234887291491,1.7333353664577007,-1.3094997132897377,0.5392573475837708,1.1668646335601809,0.2522492110729217
2.84292578125,1.3190509470976888,1.035196523006633,5.721984146863222,0.5611498951911926,0.8153895139694214,0.3344087302684784
2.862975830078125,0.5431584904238581,0.5446905222967267,10.891866326129437,0.335644781589508,0.5178185701370239,0.3767645359039306
2.883026611328125,-1.4024737650632857,0.4288684597034007,13.220527884882689,0.2644026279449463,0.3397292494773865,0.0806138142943382
2.90307666015625,-3.148566029502452,0.6310324425794184,15.624315704029796,-0.0607431977987289,0.7840104103088379,-0.3817203342914581
2.923126708984375,-2.8849805595234037,0.5894556197617202,16.5265275788486,-0.2622130811214447,0.9942481517791748,-0.6519162058830261
2.943177734375,-1.2234065070711075,0.3969426412736996,17.569353208494185,-0.5642651319503784,0.6640680432319641,-0.4338881969451904
2.963227783203125,-0.1849205140650272,-0.6923612829629331,17.71154867955446,-0.805036187171936,-0.0466775707900524,-0.1749542951583862
2.98327880859375,-1.848950289106369,-1.401045778086781,15.083450585240124,-0.6821712255477905,-0.5232239365577698,-0.2255478799343109
3.003328857421875,-3.341708136206865,-2.143820393534749,13.016951770186424,-0.714165985584259,-0.3150073289871216,-0.6023173928260803
3.023378662109375,-2.4665961574986577,-2.5195126319110392,11.223033047950269,-0.7311256527900696,-0.1344231963157653,-0.8133946657180786
3.0434296875,1.262996905311942,-1.540194428797066,8.738735521805285,-0.4743014574050903,-0.3657088577747345,-0.3105053007602691
3.063479736328125,1.4653002235934138,-1.7163934378765522,7.498546076107025,-0.2499187737703323,-0.5748102068901062,-0.067452073097229
3.08352978515625,0.1789957271259278,-1.7240968518607318,7.136721765694022,-0.1506146639585495,-0.3148947954177856,0.0781371742486953
3.10358056640625,0.6161529994860291,-1.572712842825055,6.531221969908476,-0.0736049860715866,-0.0530772432684898,0.2843978404998779
3.123630859375,0.8377292465794831,-1.5365863213025033,5.415489509484171,0.0127688292413949,-0.3861026465892792,0.4103547036647796
3.143681884765625,0.5262906134596094,-1.9159031799167396,3.496649691593647,-0.1342337131500244,-0.98777437210083,0.4905896186828613
3.16373193359375,0.5019467745915055,-1.5175738700576125,-1.7333838817745446,-0.5473049879074097,-1.4484357833862305,0.635460376739502
3.18378173828125,-1.391628253661096,-0.1353414404470473,-10.406910726088284,-0.8111774325370789,-2.22681212425232,0.5217316746711731
3.20383251953125,-1.90846470047906,1.4776193146795034,-21.48074689978361,-0.4789543747901916,-2.391363382339477,0.5383939146995544
3.2238828125,-4.364146226862073,3.0279464304342865,-31.304457924699783,0.4381895959377289,-0.8603610396385193,0.4942263662815094
3.24393359375,-5.626412479811907,3.3392160271301865,-30.184927825558184,1.0295588970184326,0.5446316599845886,0.2708524763584137
3.26398388671875,-5.234043393531441,3.0763562410771845,-24.888963105642794,1.0852056741714478,0.6040149331092834,-0.0383880175650119
3.28403369140625,-2.694377615907788,2.460878656634688,-17.4288586961329,0.7915294170379639,0.2271241396665573,-0.1752673983573913
3.304084716796875,-0.9027633712217212,2.4534920535147187,-14.723788421297073,0.7524530291557312,0.1726041585206985,-0.2458376139402389
3.324135009765625,0.4809850889749825,1.7590034761995077,-10.670475153279304,0.6331226825714111,0.3711132407188415,-0.4142186343669891
3.344185791015625,0.7622886595394462,1.4081427506104112,-6.057338383501768,0.3774714171886444,1.0288463830947876,-0.5564319491386414
3.36423583984375,2.176698434655368,1.273305679488927,-1.1647492970496416,0.353968471288681,1.0938116312026978,-0.4309719502925873
3.38428564453125,2.8405650792136785,1.4527590141892432,3.251442174348235,0.6000149846076965,0.6880046725273132,-0.1871459782123565
3.404336669921875,2.807761126242578,0.6021063539549708,8.908801581087708,0.4650279581546783,0.436575174331665,-0.0285637024790048
3.42438671875,0.1652370682233944,0.8130860229060053,13.412761936831474,0.2392163723707199,0.6675366759300232,-0.1799076050519943
3.444437744140625,-0.1117307746917009,0.982500048020482,14.807742131268975,0.1229840889573097,0.8272455930709839,-0.2743398249149322
3.464488037109375,-0.6356091759104281,0.4056652057051658,16.977017430186272,-0.1754530966281891,0.6383680701255798,-0.3716465830802917
3.48453759765625,-0.504133105654642,0.0295922243829816,17.436483199661968,-0.3228245675563812,0.1567461043596267,-0.422610342502594
3.5045888671875,0.0411981987636536,0.2359654955171048,15.358326680040358,-0.3106836080551147,-0.2745863497257232,-0.400458961725235
3.524638671875,0.4150612489514053,0.1234003158278763,15.09740779892206,-0.53374183177948,-0.5666858553886414,-0.3262995183467865
3.544689697265625,0.427074708154425,0.097791352394782,13.159360007214543,-0.6961321830749512,-0.7158737778663635,-0.2802681922912597
3.56473974609375,0.5855232122162357,0.0537976959600113,10.26473512877226,-0.6779271960258484,-0.6107887029647827,-0.1809320151805877
3.584789794921875,0.9193572170175612,0.1404463897700887,7.6105340404301876,-0.5258095264434814,-0.3159284591674804,-0.0886371657252311
3.6048408203125,0.4918500357300043,-0.1403043600840494,6.7639622197687626,-0.4010698795318603,0.0992435589432716,-0.0464032515883445
3.624890869140625,0.6701647948544472,-0.187719698063191,6.679160368534922,-0.3203476667404175,0.3678211867809295,0.1099481880664825
3.64494189453125,0.4463321471363305,-0.5313487736320123,6.7814896931529045,-0.2241946160793304,0.0338843390345573,0.2390680015087127
3.66499169921875,-0.097794494199939,-0.803186121790856,6.155548582363128,-0.1882329732179641,-0.2732574045658111,0.3769339025020599
3.685041748046875,-0.1441770733315497,-1.0663673948831855,3.9103789612889286,-0.2042441517114639,-0.4172205030918121,0.5435765981674194
3.70509326171875,-0.651901116150245,-1.7493392835363744,0.052268531897664,-0.186794102191925,-0.8668627738952637,0.6077125072479248
3.7251435546875,-1.6604704751245676,-1.8165043557927008,-6.638954030352831,-0.2011982798576355,-1.446316123008728,0.6070963740348816
3.745193359375,-2.969097058841586,-0.8790554556369781,-15.367309612441062,-0.0846674218773841,-1.8461534976959229,0.5082030296325684
3.76524462890625,-5.109545491725206,-0.4110841254813596,-24.622229400765896,0.3926067054271698,-1.2893600463867188,0.1291423141956329
3.785294677734375,-4.9590094778209926,0.5151584306031465,-27.744219265770912,0.924450695514679,-0.0687314197421073,-0.0160319339483976
3.805345458984375,-3.910743410687149,1.277112524425983,-24.040569330251216,1.120331645011902,0.3759024739265442,-0.1339726746082306
3.825395751953125,-3.8621725642636417,1.050758322340995,-17.359460750257966,0.8165809512138367,0.2741210162639618,-0.4277694225311279
3.8454453125,-2.357891891021281,0.407346144529432,-14.204586852782963,0.5815096497535706,-0.2531517148017883,-0.6510139107704163
3.86549658203125,-0.4071184732533991,0.5358393265169114,-13.54208857396841,0.5886828303337097,-0.2996023893356323,-0.7105395197868347
3.88554638671875,0.4596662604838609,0.6969595705386251,-10.1674543197155,0.4431981146335602,0.7546383738517761,-0.78716641664505
3.905597412109375,0.5792144309282302,0.6705249334037303,-4.196061696785688,0.1596128195524215,1.3739203214645386,-0.9520550966262816
3.925647705078125,3.045246817064285,0.5147767378091812,0.5355412934184074,0.1496385186910629,0.8097445964813232,-0.662367045879364
3.945697509765625,4.381911016133428,0.7316883540924638,4.422873141118884,0.3886865079402923,0.0994479209184646,-0.0776266902685165
3.965748779296875,3.1911507872536777,1.2861892725899815,7.45155811496079,0.6793261170387268,0.3423435986042022,0.210716888308525
3.98579833984375,1.109047137441486,1.1213776997696607,9.597285365030167,0.6662488579750061,1.0238523483276367,0.3251084387302398
4.005849365234375,0.1573292907735332,0.3018025340400636,12.498459811246397,0.6642287373542786,1.039139747619629,0.1187179684638977
4.0258994140625,-1.333473586334288,0.1687960393466055,15.08319690274,0.3119915723800659,0.7411289811134338,-0.2485969066619873
4.045949462890625,-0.5358765167221426,0.0981482395410537,15.310371335166693,0.0544193238019943,0.3899532556533813,-0.4210964143276214
4.066000732421875,0.580519522177428,0.7892959819957613,11.92921030949354,0.2948343157768249,0.0111431283876299,-0.2968288958072662
4.086050537109375,0.9605631606962532,0.6998597489595413,10.962331608974932,0.3086766302585602,-0.3678735494613647,-0.1660650074481964
4.1061015625,0.0274552854195237,0.4356488405585288,10.972535023081305,0.2150879055261612,-0.5803266763687134,-0.2843802869319916
4.126151611328125,-0.8625590788662433,0.3457889752827585,9.62439958192706,0.1271448880434036,-0.3064887225627899,-0.5112276077270508
4.146201416015625,-0.4065560901302844,0.6125006144583225,8.566856275621056,0.0215787421911954,0.290543794631958,-0.5734233856201172
4.16625244140625,0.1603460447788238,0.8830908486329019,7.817946372288465,-0.015582064166665,0.6287139654159546,-0.5233228206634521
4.186302490234375,0.5880963141072542,1.043312536379695,5.605975256460905,0.2867528796195984,0.5667548179626465,-0.3497867286205292
4.2063525390625,0.8102486805882304,0.6280588335961103,4.991805832007527,0.2495683580636978,0.5405924320220947,-0.1571628600358963
4.226403564453125,0.3849227888625114,-0.4445160376250743,4.133426084652543,-0.1640727818012237,0.3669266104698181,-0.1200820803642273
4.24645361328125,0.1836496538789942,-0.5121311917364597,3.2762352548211813,-1.075978398323059,0.4198107719421386,0.0323711931705474
4.266504638671875,0.3169548027254641,-0.0817138220906257,-3.102628746452927,-0.8387432098388672,0.0735930129885673,0.1036971285939216
4.2865546875,0.7377993843186647,0.728252534424886,-12.556141600364446,0.4856812655925751,-0.963611662387848,0.0713360831141471
4.3066044921875,0.77401723738648,1.3986474847733974,-17.684062122213838,1.7110623121261597,-0.8727917075157166,-0.2330120056867599
4.326655517578125,0.6378747096896171,1.4961520195834337,-16.882177584540845,1.9109327793121336,-1.0480782985687256,-0.2171563357114792
4.346705322265625,-1.125581362004578,0.9446996019363404,-12.319544675076006,1.0922881364822388,-0.3075014650821686,0.1538383215665817
4.366756591796875,-3.6679359403207896,-0.7739191107742488,-8.913903288140892,0.0589362792670726,-0.2812430262565613,-0.3770312368869781
4.386806640625,-3.231191998001933,-1.1971861702740192,-7.63615421937704,-0.3548340201377868,-0.3330325186252594,-1.0091780424118042
4.406856689453125,-1.0211055268771947,-0.2593399413637817,-8.733422217828036,-0.1627660542726516,-0.5444024801254272,-0.806193470954895
4.42690771484375,0.6483319524265826,0.7031617131143808,-10.107447302520274,0.2859308421611786,-0.6113985180854797,-0.192035362124443
4.446957275390625,0.063637117325887,1.2099074124202132,-7.190961305403709,0.3267062306404114,-0.2061704844236374,0.160510778427124
4.467008544921875,-1.5778125040516255,0.8695008608281611,-1.1708417687058448,-0.2256392985582351,0.2634492516517639,0.0929895341396331
4.487058349609375,-3.1281811208605763,0.5218291405387222,3.2537592191189524,-1.069334626197815,0.1697095334529876,-0.3938445448875427
4.507108642578125,-1.997446321615577,0.0326548998892307,3.500319904538989,-1.38100004196167,-0.1516873389482498,-1.0139765739440918
4.52715966796875,0.068002180667594,0.8635450211636722,-0.0945440775692463,-0.7717874050140381,-0.1318328529596328,-0.9607658982276917
4.54720947265625,2.129756650738418,1.5729866913303732,-0.1373684892952442,-0.2675812542438507,-0.0055719222873449,-0.4660008549690246
4.567259765625,2.181916023173183,0.5233320924475788,3.500729069861769,-0.065323993563652,-0.2716802656650543,-0.297503113746643
4.587310546875,0.4836947497924789,-0.3204914524190128,7.061764432126283,-0.2825514674186706,0.1644769012928009,-0.6102312803268433
4.607360595703125,0.0051149318609386,-0.4312003367170691,7.101562189507484,-0.2892164885997772,0.649858295917511,-0.8646466135978699
4.627411376953125,1.036025886502862,0.2497939682528376,6.669193685793876,0.0593152306973934,0.6115200519561768,-0.7059422731399536
4.64746142578125,2.8450746655926107,1.0647728191681205,7.938119981154799,0.4418293833732605,0.0371324233710765,-0.188137486577034
4.667511474609375,2.22101717659235,0.5163382880374789,8.965911123275756,0.535841166973114,-0.3754760026931762,-0.0584352314472198
4.6875625,0.4103717759609222,-0.1342559102326631,9.349002678123115,0.4662824273109436,-0.531293511390686,-0.3346181809902191
4.707611572265625,0.0583266628928482,0.0024351181924343,8.053613323250412,0.5851201415061951,-0.6115727424621582,-0.6116892099380493
4.72766259765625,0.7756005610551685,0.5171361604169011,6.398812564325333,0.6866707801818848,-0.7273473143577576,-0.682226300239563
4.747712646484375,1.3214675067201256,0.9563521919377148,5.347410829514264,0.6090622544288635,-0.5675680041313171,-0.4623301327228546
4.7677626953125,1.2188824537754055,0.6276128433942795,5.237336589857936,0.526418149471283,-0.1802767068147659,-0.0047361408360302
4.787813720703125,-0.3319149098396301,0.3468855383478105,5.172962025102973,0.1484508216381073,0.2297989130020141,0.0213503260165452
4.80786376953125,0.1699400948151946,-0.2099868585214018,2.1825229030251503,-0.1910089403390884,0.1232545003294944,-0.1009795814752578
4.82791357421875,0.7471113294780254,0.2768485639169812,-2.5638766742944714,0.2173216193914413,-0.237003207206726,0.0580840148031711
4.847964599609375,1.3436609260886907,0.544093140925467,-5.886491987496614,0.3928481042385101,-0.6522749066352844,0.691270112991333
4.8680146484375,0.3756672500655055,-0.2942933274537325,-7.427776841878891,0.0868558883666992,-1.2629834413528442,0.7030154466629028
4.8880654296875,-0.8093716054927558,-0.3208241915047168,-11.17643847003579,0.0697756633162498,-1.2844040393829346,0.4834538698196411
4.90811572265625,-1.436669026262313,-0.4739169041544199,-13.462268602800368,-0.2125947177410125,-0.8725776076316833,0.4428752064704895
4.92816552734375,-2.9103295203134416,0.054756549321115,-12.208539292049409,-1.078358173370361,-0.482549786567688,0.5414312481880188
4.948216796875,-3.4813013158142563,-0.1578828695356846,-13.266334527289867,-1.0697381496429443,0.1094100177288055,0.4521211683750152
4.968266845703125,-2.208236020952463,0.427934905180335,-13.934964440727232,-0.6694349050521851,0.3185479342937469,0.3640237748622894
4.988317626953125,-1.9503889484949408,-0.0543107052497565,-10.751180090588331,-0.1819903552532196,0.4566579461097717,0.1705839186906814
5.00836767578125,-1.575012644200027,-0.3660515727192163,-4.818337270805239,-0.0474226512014865,0.4837156236171722,0.0682751312851905
5.02841748046875,-0.3685543493203818,-0.3640297115027904,0.9150590814322233,-0.2578586041927337,1.0060429573059082,0.6984624862670898
5.04846875,2.222311600317061,-0.1020180667117238,4.379479989594221,-0.7564125061035156,0.8962575793266296,0.963331937789917
5.0685185546875,2.3209166437149045,0.2718196298390626,4.50441862090528,-0.9825196862220764,-0.1521088778972625,0.9862794876098632
5.088569580078125,0.7620544123921543,-1.1135604501474647,5.7264837963700295,-0.7456981539726257,-0.4439536333084106,0.428971529006958
5.108619873046875,-1.0818399815641342,-0.8169688556887209,5.3566684872031205,-0.1635787934064865,-0.0684606209397316,-0.1811747252941131
5.128669677734375,0.2727068610023707,0.0204009829938411,5.877298042693734,0.6132193207740784,1.0080983638763428,-0.1850539892911911
5.148720947265625,1.420894095633924,0.5384674830634146,7.46455554369986,0.6076202392578125,0.907548189163208,-0.1501358598470688
5.1687705078125,2.3589679958201946,0.1221368717633187,9.493639697116611,0.2725044786930084,0.7095746397972107,0.13315150141716
5.188821533203125,2.422121786608547,0.1438200035221874,11.01302836151123,0.0594653412699699,0.5091010928153992,0.2504410147666931
5.20887158203125,0.8450154580648988,0.326739553028345,8.78692116830349,0.1768590956926345,0.1883821785449981,0.1072637140750885
5.228921630859375,-0.1901368604738265,0.1903083445832133,7.863587010478973,0.4692427515983581,0.4791010916233063,-0.2376699745655059
5.248972900390625,0.2235092244500294,0.333213132956624,7.827474079090356,0.5395023822784424,0.6226000785827637,-0.1867784708738327
5.269022705078125,0.9076768622264264,0.1975565621457994,8.505232470878958,0.3302704989910126,0.4351778328418731,0.0196344461292028
5.28907275390625,0.4198153116106987,0.198501880171895,6.165292562264204,0.4980485439300537,0.1710860133171081,0.0063498821109533
5.30912353515625,-0.0076111325908452,0.3755805946953594,3.806548584458232,0.8889450430870056,0.3057453632354736,0.3111410439014435
5.329173828125,-0.1778670701558701,0.5942101938776672,3.02399477019906,0.8022028803825378,0.4684975445270538,0.8069117665290833
5.349224609375,-0.3898235665161162,0.4377319304428994,0.7630225998371839,0.5337491631507874,0.2987904250621795,1.142817735671997
5.369274658203125,-1.0518269744858144,0.5896348487861454,-2.322130111157894,0.0882876366376876,0.2178926765918731,1.1425904035568235
5.38932470703125,-2.1583611061930656,-0.2960626752138137,-5.344815552324056,-0.8625050187110901,0.1986384391784668,0.7287498116493225
5.409375732421875,-1.4954808423236012,-0.7974402716152369,-11.06023201123476,-1.2815251350402832,-0.2560192346572876,0.4338701665401459
5.42942578125,-1.629560811467469,1.3968512490063905,-20.001682062470916,-0.5831630825996399,0.1244740337133407,0.4442310035228729
5.449476806640625,-0.0385726634324993,2.0627298179090023,-21.266451822674277,-0.2304848730564117,0.9133747816085817,0.8213526606559753
5.469526611328125,0.4161187951803207,0.4298156043604016,-16.876021399998663,-0.3749444186687469,0.3029832541942596,0.7477837204933167
5.48957666015625,-0.0359372094955295,-0.6049022682838141,-13.74811266633868,-0.5685939192771912,-0.9544515609741212,0.4584199786186218
5.509627685546875,-0.5588415415177121,-0.3431802540890872,-13.59693777000904,-0.5321593284606934,-1.229374885559082,0.2449655681848526
5.529677734375,-2.0452710258468985,0.4928517601184546,-12.217346867883204,-0.3108727037906647,0.0782276093959808,0.0522632263600826
5.549728759765625,-1.576590268780291,0.6946328080914914,-5.7370952067554,-0.3094774484634399,1.110386848449707,-0.0215716660022735
5.56977880859375,-0.7550408073030411,-0.2094176803313195,2.04277833224833,-0.4271590709686279,0.9191234111785888,-0.2230959087610244
5.589828857421875,-0.4099047064384445,-0.6680897421460599,7.2237827940315,-0.4674789011478424,0.3421506285667419,-0.4529237747192383
5.6098798828125,0.0844673951150849,-0.6096067196477204,10.145606060522796,-0.5271466970443726,0.2679648995399475,-0.6307836174964905
5.6299296875,-0.4905720516834407,0.5562113026119768,10.256312168341877,-0.2373669147491455,0.3480314612388611,-0.5985700488090515
5.649979736328125,0.8785961675621569,0.1238561698365956,12.222412334579229,-0.2206728458404541,0.5391256213188171,-0.3800301551818847
5.670030517578125,0.422865273765847,-0.4410775145437568,14.616447990518807,-0.3425113558769226,0.6471464037895203,-0.2860775291919708
5.690080810546875,-0.5557326887821779,-0.9014001200444997,15.529722526621818,-0.4538070261478424,0.4647169709205627,-0.3496058881282806
5.71013232421875,-0.8927033111087977,-1.2900633375443518,14.727085124754906,-0.4705201685428619,-0.0304313227534294,-0.4478368759155273
5.73018212890625,-0.3772953627239913,-1.1870751106262207,12.36267771435976,-0.3763731122016907,-0.4926644563674927,-0.3713161051273346
5.750232177734375,0.0999214962912723,-1.2749866183131933,10.924276895868775,-0.4566912949085235,-0.839362382888794,-0.2282752245664596
5.770282958984375,-0.198796479204297,-1.256819970242679,7.619972899904846,-0.2477149665355682,-0.8704319596290588,-0.1283392161130905
5.790333251953125,-0.817101980549097,-1.1391680618736892,5.937848665246367,-0.1414916664361953,-0.3549169600009918,-0.1868258714675903
5.810384033203125,-1.5571790274761617,-1.2683240916840732,5.380494768470525,-0.1206259950995445,0.4643862843513489,-0.327152818441391
5.83043408203125,-0.391948668911308,-1.2900595381520688,4.934208214041591,-0.1315578073263168,1.0064704418182373,-0.1906792074441909
5.850484130859375,0.6485616695292293,-1.4727227748095988,3.7905209942430256,-0.0317675359547138,0.942677676677704,0.0696321949362754
5.87053515625,1.1530236418120563,-2.1854655323483048,3.384345500928163,-0.2477536052465438,0.0594470724463462,0.2615311443805694
5.89058544921875,1.666376922689378,-2.473952657741308,-0.420911290153861,-0.5079506039619446,-1.1409231424331665,0.4761758148670196
5.91063623046875,0.6962530297044665,-1.4809491897545757,-9.242419787713883,-0.4558145999908447,-2.080836534500122,0.5518156290054321
5.93068603515625,-0.5063827842775732,-1.2606366059213876,-17.81611964561939,-0.3645093441009521,-2.098391532897949,0.504910409450531
5.950736083984375,-1.358867993701249,-0.4615259168758988,-25.87107912278175,0.1606195122003555,-0.6468607783317566,0.5731955766677856
5.970787109375,-1.909019119491428,0.2706609613232314,-25.64195121819973,0.582854688167572,0.4088492691516876,0.6246941685676575
5.990837158203125,-2.344561284805089,0.0050123665356077,-20.735502533221243,0.7602021098136902,0.2076333165168762,0.3029181063175201
6.01088818359375,-3.3188869403287766,-0.1256662149332463,-15.329039795279504,0.5940468907356262,-0.2106210887432098,-0.1736091524362564
6.030938232421875,-2.278935989336669,0.062200581716746,-11.60697508214712,0.2475021481513977,-0.0588786751031875,-0.5098240971565247
6.05098828125,-0.2413165742214769,0.5106466157345101,-10.42894369419813,0.3393804132938385,0.2936327755451202,-0.4756711721420288
6.071039306640625,0.0168104842212051,1.359302439595759,-7.824024815419316,0.7553567886352539,-0.00269420677796,-0.5213651061058044
6.091089111328125,-0.0105439711723476,2.3787562537431715,-3.255625012990832,1.042664647102356,-0.4115568995475769,-0.7889577150344849
6.11113916015625,-0.0995872228356078,2.4201570624068376,4.363562874016165,0.5571628212928772,0.2429395318031311,-1.1248773336410522
6.13118994140625,0.8282774545580148,2.6214088258087638,8.74518162920475,0.1499511301517486,1.0228630304336548,-1.079817533493042
6.151240234375,2.3220474013105035,2.987316021621227,10.642254436445237,0.2244351953268051,1.0811649560928345,-0.7060897350311279
6.171291015625,1.723597670166939,2.740956411731243,13.820980334150793,0.2037070542573928,0.7023488283157349,-0.4858048558235168
6.19134130859375,0.6148272307749837,2.151900824137777,16.063998914670943,-0.1098548620939254,0.6146981120109558,-0.3737480044364929
6.211390869140625,0.4918191656677052,1.5950142526127398,16.633192302322385,-0.5154639482498169,0.6388785243034363,-0.1971898227930069
6.23144189453125,0.4646587350089102,1.080211357448995,14.655008899581432,-0.6864885091781616,0.3888081014156341,-0.0012220942880958
6.2514921875,0.5748305167555808,0.7797628683663904,13.032394838511944,-0.7891377806663513,-0.0426851548254489,0.1778224855661392
6.27154296875,0.021134631030634,0.2309575311619788,11.710608475100994,-0.8814297318458557,-0.3579938411712646,0.2262818217277526
6.29159326171875,-0.4954508367009461,-0.0370039984768256,8.625218448218703,-0.693196713924408,-0.338914692401886,0.2139721512794494
6.31164306640625,-0.0991601382636465,-0.4224632688362151,7.086003970369696,-0.5582847595214844,-0.0113142747431993,0.3219491243362427
6.331694091796875,0.368528411161527,-0.8434963587388395,6.00895575312674,-0.3353166878223419,0.1201374903321266,0.4481848180294037
6.351744140625,0.4367518333643674,-1.49051269852221,5.264212906345724,-0.1708553582429886,0.0052669257856905,0.5499895811080933
6.371795166015625,0.1679968700592406,-2.1533419628568,4.828301030936837,-0.0727215036749839,0.1161107569932937,0.6638233661651611
6.39184521484375,0.355246758653596,-2.562652100935578,1.7500298961490393,0.3289463520050049,0.136799082159996,0.8185164928436279
6.41189501953125,0.4139084987197071,-3.6029593180194497,0.0081517422735691,0.3421662747859955,-0.1731561124324798,0.8235394954681396
6.431946044921875,-0.1801018252043053,-4.688649983662367,-3.1828327485024928,0.2513458728790283,-0.7680660486221313,0.5913314819335938
6.45199609375,-0.4970941834611818,-4.132378621426224,-10.126659367990491,0.4409611821174621,-1.1812249422073364,0.3851424753665924
6.472047119140625,-0.3371371745325625,-2.9913571137055754,-16.459268983089924,0.7010306119918823,-0.9577434062957764,0.3777031898498535
6.49209716796875,0.1979991182815283,-1.9976865601122376,-20.672484059250355,1.1651873588562012,-0.3546759784221649,0.4709182977676391
6.512147216796875,-0.2226874962709844,-0.7351954854305833,-20.39882260093689,1.4582796096801758,-0.1280658692121505,0.460023283958435
6.5321982421875,-1.3404665139615537,-0.4266350746281445,-15.892356399852035,1.2243822813034058,-0.1207121610641479,0.1676375865936279
6.552248046875,-1.9487442500278356,-0.1833819063208997,-12.365261301112174,0.7462384104728699,-0.0518774650990963,-0.1686632931232452
6.57229833984375,-0.4059143216280266,0.2118998525358736,-10.850049630141257,0.4572547078132629,-0.2075607776641845,-0.2970807552337646
6.59234912109375,1.582640362599492,-0.0098627839751541,-8.824166903114318,0.1366710662841797,-0.1513788700103759,-0.0958284139633178
6.612399169921875,-0.4722033051695674,1.900045393310487,-6.204163267928362,-0.0244177803397178,-0.1888656020164489,-0.4595060348510742
6.632449951171875,0.0544900073394179,1.0997193371258676,-4.914125795477628,0.4907582998275757,-0.5212306976318359,-0.7276687026023865
6.652500244140625,0.4275902564611286,2.0075679026573896,-1.5197463917911052,0.862602949142456,-0.9577397704124452,-0.8418362140655518
6.672550048828125,0.2573000330340117,1.7726603917606174,4.045199519667029,0.3656190037727356,-0.9312273859977722,-0.8621705174446106
6.692601318359375,0.7081771301236003,1.5246443929657338,8.298807981014251,-0.5324415564537048,-0.1998533308506012,-0.6944923996925354
6.712651123046875,-0.2504145843692124,2.2484194166503846,8.898906210017204,-1.013607144355774,0.1614273637533188,-0.7691866159439087
6.7327021484375,0.3056982993695885,1.4510923961512745,9.176879686310889,-1.0326896905899048,0.1852352917194366,-1.0371663570404053
6.752752197265625,0.978265259994939,1.4634113411068916,8.241766827887297,-0.7163572907447815,0.3602445721626282,-1.1734838485717771
6.77280224609375,1.800511836890876,1.312584089171141,8.588177880591154,-0.3702963590621948,0.6779930591583252,-0.9191914200782776
6.792853271484375,2.109502674999833,1.3915233319818974,9.30455095745623,-0.1221440955996513,0.830935001373291,-0.1527687460184097
6.812903076171875,2.922777790737152,0.75204045644328,9.715473937559128,-0.0041149519383907,0.6720255017280579,0.5696105360984802
6.8329541015625,1.7074439693540333,0.316830007302016,9.423439202687144,0.0844830572605133,0.4257298707962036,0.7644055485725403
6.853004150390625,0.1366269136803224,0.4645091704703867,8.489981710255146,0.1084381639957428,0.0899507999420166,0.4104552865028381
6.87305419921875,-0.4353371442608535,0.1053552483104169,7.83682993645668,-0.0145873297005891,-0.1772505491971969,-0.1415989100933075
6.893105224609375,0.3695552699912339,0.2003178435526788,7.28868518205285,-0.2359255999326706,-0.1445310413837433,-0.1334554105997085
6.913155029296875,1.457860428981483,0.183891828604415,6.009149814394116,-0.2054262012243271,0.3258061110973358,0.2581585347652435
6.933206298828125,1.105944933642447,0.9599651217378676,2.749496276539564,0.2783626616001129,0.637111485004425,0.5319437384605408
6.953256103515625,0.9798893540654332,0.5777838136032223,1.4494991356104612,0.8024294972419739,0.3939962685108185,0.7426062822341919
6.973306396484375,0.3925510187186301,-0.2768641998775303,0.8629337573975324,1.0298185348510742,-0.339560329914093,0.5952838063240051
6.993357421875,-0.4890296445470303,-0.5554900026001036,-0.5882558155179023,1.1990416049957275,-0.762994647026062,0.2536253631114959
7.013406982421875,-0.9584005027696488,-0.614083938127011,-3.167314861375093,1.0208592414855957,-0.7244905829429626,-0.0391184389591217
7.03345703125,0.1982202867515385,-0.8487748836636543,-4.695557278832793,0.1666263341903686,-0.8449035286903381,0.0715022608637809
7.053508056640625,0.8824706709079444,-1.33948451718688,-8.43178671091795,0.0270177461206913,-1.120466709136963,0.1315965801477432
7.073558349609375,-0.8756148136638104,-1.0966723706454038,-16.919551914167403,0.595271110534668,-1.2226319313049316,-0.00394873553887
7.093609130859375,-2.363854160426557,-0.849753519437462,-14.283437686657903,-0.3750293254852295,-1.3373818397521973,-0.1251560300588607
7.1136591796875,-2.915734301966429,-1.848707420261204,-10.092789831614494,-1.2932169437408447,-0.8255296945571899,-0.1856978386640548
7.133709228515625,-4.111702913144231,0.2844381422631442,-11.798109063899515,-0.9391495585441588,-0.6379037499427795,-0.5094069242477417
7.15376025390625,-2.779690339273214,2.134730347497761,-10.77173538736105,-0.2921830415725708,-0.2912162542343139,-0.3899193406105041
7.17381005859375,0.8615019710287452,0.1546573316179215,-4.651477898609638,-0.6452789306640625,-0.0633651688694953,0.1437206268310547
7.193861083984375,-0.6938518868468702,-0.3433766534440219,-1.1883359243422746,-0.5628257393836975,-0.7471688985824585,-0.1639193892478943
7.2139111328125,0.2914103193633258,-0.3367567969128489,0.1647591850459575,-0.5388283729553223,-1.6255497932434082,-0.2767554819583893
7.233961181640625,0.8175932711973786,0.1084007534861564,3.533852171784639,-1.28513765335083,-0.983803391456604,-0.1253010779619217
7.25401220703125,0.158154379953444,-0.1116782407868653,3.693464057070017,-1.973552107810974,-0.2480938285589218,-0.1602780669927597
7.274062255859375,0.7878276630088686,-0.686171123085916,1.402736215391755,-1.577040195465088,0.7301717400550842,-0.0715762376785278
7.29411328125,1.3924334325641392,-0.0462134696424007,0.7394628605514765,-0.4866106212139129,1.4772100448608398,0.1250419169664383
7.3141630859375,2.9178026326730846,-0.24308723715581,3.1228117027819158,0.3561767637729645,0.9032320380210876,0.3170109093189239
7.334213134765625,2.8437194515913724,-0.4252911492059007,5.207921694803238,0.992542803287506,0.2343326359987259,0.3226692378520965
7.35426416015625,2.293523902137577,-0.1564555401463061,7.909215958231687,1.216336727142334,0.0407435484230518,0.3094739913940429
7.374314208984375,1.1748606489583848,0.0911013167042285,9.535915242788196,1.1925349235534668,0.2415854930877685,0.1463836878538131
7.3943642578125,0.6089838385090232,-0.1089100912477821,9.323720937350393,1.2112261056900024,0.420294314622879,-0.1996912509202957
7.4144150390625,1.829430618991703,-0.1666588811874389,8.903292462277411,1.0780469179153442,0.2948777079582214,-0.3264309167861938
7.43446533203125,1.8966141036875543,-0.7429322902277111,7.912998983901739,0.6147804260253906,0.2647465169429779,-0.1866661608219146
7.45451611328125,1.6820165365003048,-0.154373984631896,6.830386118268966,0.1848773211240768,0.6697946786880493,0.0272098109126091
7.474566162109375,0.5986113514460623,0.3960897142387926,5.68496871367693,0.1372332423925399,1.1385339498519895,0.3032277226448059
7.494615966796875,0.1090096791647374,0.8471694942936301,3.910130539485812,0.6724711060523987,1.2369412183761597,0.4430218338966369
7.5146669921875,0.1445348737932741,1.0907524790771306,1.4590700970321893,1.3535007238388062,0.6474963426589966,0.6117686629295349
7.53471728515625,-1.0595012354407458,1.2415974128000438,0.0777004947960376,1.3987829685211182,0.3570093512535095,0.3554011583328247
7.55476806640625,0.1345101772546768,0.7177265373006463,0.3538631222754717,0.773963987827301,-0.2513778507709503,0.3805905878543854
7.574818359375,-0.2349544187784195,0.0184463417947292,-1.200892039054632,0.1613771915435791,-0.8471977114677429,0.1745493710041046
7.5948681640625,-0.5906365731745958,0.2202186219394206,-7.136753914397954,-0.0988329872488975,-1.3895055055618286,0.0284370798617601
7.614919189453125,-0.9702920160934329,0.976916110408306,-12.783489051270484,0.0418096780776977,-1.3953649997711182,0.115866519510746
7.634968994140625,-2.666215935784578,1.6411664935871957,-15.527725799846648,0.3093074262142181,-0.1236486881971359,0.2494304627180099
7.65502001953125,-3.035515112122893,0.025727730974555,-11.362261485898497,-0.2315631061792373,1.0230201482772827,0.2666051685810089
7.6750703125,-1.9800962506249544,-1.185041266711056,-8.011569832769036,-0.7634001970291138,1.1113611459732056,0.1892113238573074
7.6951201171875,-0.8473274613343179,-1.681979565490782,-8.321278171497584,-0.6171010136604309,0.0612760372459888,0.0438795089721679
7.7151708984375,-0.9210289496220648,-1.7701716436848045,-7.559189637640118,-0.2713547348976135,-0.8111865520477295,-0.313506156206131
7.735220703125,-1.1381114654928446,-1.1014711492292582,-5.278914216393232,-0.3104718029499054,-0.607093870639801,-0.4047039747238159
7.755271728515625,-1.5885225525058806,-0.6935242623277008,-2.470899699911475,-0.7355406880378723,0.1247372850775718,-0.5111079812049866
7.77532177734375,-1.2814894243359565,-0.4261357468038797,-0.2586298933982849,-0.939464807510376,0.4957197606563568,-0.6645954847335815
7.795371826171875,0.1000632793821394,-0.1641964365966618,1.3891373136281966,-0.9455936551094056,0.3947128057479858,-0.6815375685691833
7.815422607421875,1.266142363730818,0.1379828218013048,1.763681989404559,-0.6478062868118286,0.3161829113960266,-0.5878077745437622
7.835472900390625,1.6313175920069216,0.1270806117758154,2.48706056111753,-0.2215774804353714,0.3446389734745025,-0.434226244688034
7.855522705078125,1.8199390064164995,0.1262194649018347,3.832460439828038,0.1622864156961441,0.601100504398346,-0.2378768920898437
7.875573974609375,1.6797009530343114,0.2833409946762025,5.689791603788733,0.3577811121940613,0.8986444473266602,-0.0271741673350334
7.895623779296875,1.1917660449214278,-0.0189645204499363,7.658165560176968,0.3644405305385589,0.9011334776878356,-0.0047009936533868
7.9156748046875,0.4555013958893716,0.0890399271950125,8.639662568634748,0.4520738124847412,0.7450858950614929,-0.1349776834249496
7.935724853515625,0.6601530308626592,0.4280978406570851,8.84109641060531,0.6343517899513245,0.5323393940925598,-0.0137364752590656
7.95577490234375,1.2083345370803027,0.9570394435495138,8.948865880450606,0.6295892000198364,0.4635353088378906,0.2517250180244446
7.975825927734375,0.096259868511185,0.8557780404239892,8.57352567038238,0.4098737835884094,0.3925202786922455,0.2240224629640579
7.995875732421875,-0.2654833394896239,0.990012323346734,7.343920747062564,0.3838315010070801,0.4946720004081726,0.2354149520397186
8.0159267578125,-0.323476897970587,1.234607553912699,6.036807636648416,0.686446487903595,0.4677332043647766,0.2962396740913391
8.035976806640624,-0.3545892445929348,1.0661639812655743,4.670746662703157,0.9657788872718812,0.3398855626583099,0.3938491344451904
8.05602685546875,-0.540951116572693,0.716011257815361,4.183232610350847,0.9105759859085084,0.2572456896305084,0.5983214974403381
8.076077880859375,-0.6371500486768782,0.0470753471687436,2.854933504045009,0.7699985504150391,0.0729475542902946,0.6297311782836914
8.096127685546875,-0.3353469301149249,-0.5774906758755445,0.8934639202177524,0.528017520904541,-0.2571358382701874,0.5882663130760193
8.116177978515625,-0.4106844951719045,-1.082167752213776,-0.530187657430768,0.0540109947323799,-0.6523300409317017,0.4608171880245209
8.136228759765626,-0.0161072313226759,-1.356105397120118,-3.613372283223271,-0.4792222380638122,-1.5650951862335205,0.2881984412670135
8.156279052734375,-0.2681624955710023,-0.883307852384448,-10.75472346228361,-0.2159178555011749,-2.121559858322144,0.2645547986030578
8.176330078125,-2.197059085638821,-0.4736193825125694,-15.138334852594136,0.3227667212486267,-1.0789659023284912,0.1106603145599365
8.196379638671875,-3.469422077450156,-0.6892673355355858,-13.894980805385112,-0.2368095964193344,0.3710141777992248,0.239574447274208
8.216429931640626,-1.2835823049619792,-1.6385238701239226,-9.914905792057514,-0.779766321182251,0.9311551451683044,0.3357315957546234
8.236480712890625,-0.1938759008716791,-1.985142720359564,-8.683473653310537,-0.5824763178825378,0.3181428611278534,0.1829262524843216
8.256531005859374,0.128138888657093,-1.951246588237584,-7.075069903901219,-0.1554307490587234,-0.6564193964004517,-0.1296774446964264
8.276581787109375,0.4682116051848977,-1.470553614076972,-4.642250051537156,-0.230784386396408,-0.6488749384880066,-0.2067224383354187
8.2966318359375,-0.3426817299824208,-0.9318936041161416,-1.3115759350419045,-0.8219494819641113,0.0628243312239646,-0.2595800459384918
8.316681884765625,-0.044869580752775,-0.3709675479419529,0.9730787242025136,-1.1694742441177368,0.1649594753980636,-0.3256805837154388
8.33673291015625,0.6677336952500045,0.4063850444123149,1.3792121319413184,-0.8743336796760559,-0.5118190050125122,-0.306347906589508
8.356782958984375,0.7065073702804744,0.9272365720905364,1.9888848294973367,-0.3415157496929168,-0.631366491317749,-0.2645728588104248
8.376833740234375,-0.0769879626125097,0.793685156865418,2.788881945988536,-0.3027032017707824,-0.2856859862804413,-0.397170215845108
8.3968837890625,-0.1022252066563814,0.8157605028122663,3.4587405244380234,-0.3442734479904175,0.4901992380619049,-0.3911382555961609
8.416933837890625,0.6459561632059514,0.967341349594295,3.956813964727521,-0.1762288361787796,1.063095211982727,-0.2534090876579284
8.43698486328125,0.8564112237609922,0.9710071786254644,4.666861930224299,0.2115809917449951,1.0068789720535278,-0.2067998498678207
8.457034912109375,0.7134929913841187,0.8901070110052823,6.27069062680304,0.5275701284408569,0.6757715344429016,-0.1614270508289337
8.4770849609375,0.506642311996594,0.9431368826642632,7.593530883181095,0.5957248210906982,0.571003258228302,-0.07882110029459
8.497135498046875,0.0840021522235125,1.1253431693345308,8.038784587430953,0.524939775466919,0.6822956800460815,-0.0174961388111114
8.517185791015624,-0.2439177696958184,1.2031035776242611,7.712181812524795,0.4216184318065643,0.832295298576355,0.0342626608908176
8.53723681640625,-0.3196743638824671,1.2363324780091642,7.2622051714062685,0.527714729309082,0.7827998995780945,0.0508906282484531
8.557286865234374,-0.7158749180845916,0.8448331603005528,6.7405982953161,0.5623564124107361,0.7129756212234497,0.0330374203622341
8.5773369140625,-0.6501763381842524,0.826176975147426,5.522734663194417,0.5513954162597656,0.6794338822364807,0.1431346237659454
8.5973876953125,-0.1709480297487229,1.1739803589925168,3.098249508455396,0.6246978044509888,0.836824893951416,0.487417459487915
8.61743798828125,-0.3410441188432276,1.0447776404961944,2.0919442219555378,0.6512264609336853,0.7114927768707275,0.6570039391517639
8.637489013671875,-1.5735662447839975,-0.8976824146956205,0.6359037018775939,0.2884470224380493,0.5102484822273254,0.2632159292697906
8.657538818359376,-0.5453313774835318,-1.310463297624886,-1.969606713053584,-0.0388005264103412,-0.0095349727198481,0.0455891676247119
8.677588623046875,1.4531348617643116,-0.6360816887930035,-5.614186035445332,-0.193749725818634,-0.7202891707420349,0.1205965727567672
