timestamp,acc_x,acc_y,acc_z,gyro_x,gyro_y,gyro_z
0.071586181640625,-0.8332374150529503,-0.768279789713025,-9.401769807192682,-0.1582477539777755,-0.6843396425247192,-0.3114204704761505
0.09163623046875,-1.2323483768090604,-0.7051686690226197,-6.608613837146758,0.2018649578094482,-0.5198245644569397,-0.5161629319190979
0.111686279296875,-1.1076287950761616,-0.4443615777157246,-0.5578630153417588,0.0107717029750347,0.0682068914175033,-0.7501319646835327
0.131736083984375,0.5244192300971597,-0.6149851247504353,4.701279748132825,-0.3449961245059967,0.0124045051634311,-0.9074655175209044
0.1517861328125,1.779610357028991,-0.1642879142723977,6.643601563897729,-0.1556369066238403,-0.208127811551094,-0.743442714214325
0.17183544921875,1.8460722494520243,-0.1299836397409439,8.115196211460232,0.0893787294626236,-0.0341030694544315,-0.6433238983154297
0.19188525390625,0.9155399968169629,-0.0228922152876853,9.527330369794369,0.2285538911819458,0.4308347105979919,-0.6969653964042664
0.21193505859375,1.1094810718793422,0.3832923381164669,10.632332761889696,0.1905412077903747,0.7027409672737122,-0.6432838439941406
0.231985107421875,1.3927242322042583,0.6094140466198325,11.40070899771452,0.2313670516014099,0.4972645938396454,-0.614843487739563
0.25203515625,1.7337948006629942,1.0646071072123944,11.397954730570316,0.355589747428894,0.4416216909885406,-0.3660191893577575
0.272085205078125,2.0669090032897888,1.566748381462693,11.356381195688249,0.5010965466499329,0.3896879851818084,0.0035669165663421
0.29213525390625,2.040472539523989,1.648671608520299,11.509423054933547,0.442124456167221,-0.0924833565950393,0.1515088081359863
0.31218505859375,1.201956380350515,1.404849262022972,11.49184998884201,0.398177295923233,-0.5042245984077454,0.1582678258419037
0.332235107421875,0.790958727576211,1.6062199756294488,9.51138169003427,0.5205782055854797,-0.323767602443695,0.2513597905635834
0.3522841796875,1.375445034492761,2.063604847177863,8.494773620706797,0.5351635813713074,0.0749381259083747,0.5828897953033447
0.372334228515625,1.4057102627664804,1.6967682615607975,8.461039108887315,0.3445133864879608,0.151818498969078,0.7231618165969849
0.39238427734375,-0.5442191784579307,0.9282324512600898,7.237199324965476,0.3316754996776581,0.1740124672651291,0.5049102902412415
0.41243408203125,-0.3463292927045375,0.4294821346223354,4.613561717191338,0.296034038066864,0.4132932722568512,0.5275391936302185
0.432484375,1.439545896872878,0.2250214921765029,1.3737217178314924,-0.0904232710599899,0.3836532533168793,0.970073401927948
0.4525341796875,1.2498165212213992,-0.4260930767059326,-4.325873487091064,-0.4160575568675995,0.0107880160212516,1.3755195140838623
0.47258447265625,-0.2738685982581227,-0.8548588797524571,-11.454003365528584,-0.4300071001052856,-0.6820371747016907,1.3038510084152222
0.492634033203125,-1.8786030845701691,-1.6669522383593025,-18.04093144056797,-0.2065517902374267,-1.5294100046157837,0.5317709445953369
0.512684326171875,-1.2698726363003252,-0.8274366198197006,-21.54398983016014,-0.1967625021934509,-0.972097396850586,0.4412881731986999
0.532734130859375,-1.364575557693094,0.6934488590039313,-21.873781756496427,-0.0222732182592153,0.4571098387241363,0.7571936249732971
0.552783203125,-1.3228650985583663,0.3414982923515141,-17.329236292386053,-0.0652130469679832,0.59182208776474,0.7429372072219849
0.572833251953125,-1.376707455644011,-0.1533003640510142,-12.21528701274395,-0.3279049396514892,-0.1800956577062606,0.4107066392898559
0.592883056640625,-0.9102124451186508,-0.1423386789232492,-9.422443177387118,-0.5293716788291931,-0.602759838104248,0.1651026010513305
0.612933349609375,0.8495177379202097,0.5553315971679985,-8.12946614435315,-0.5609673261642456,-0.3879212737083435,0.4214505553245544
0.632983154296875,1.6152110913366078,0.8223929265640676,-5.326947887200117,-0.343690425157547,-0.0411645136773586,0.8782081604003906
0.653033447265625,-0.5183511622298509,-0.3734606799319386,-1.4202315400719645,-0.02970059402287,-0.1607019901275634,0.7243121266365051
0.67308349609375,-1.5342344974793494,-1.4237407172366976,4.048450630417466,-0.1190942898392677,-0.2749407887458801,0.3459577858448028
0.693133544921875,-0.8256666875377296,-1.605850265534222,7.243024085596203,-0.4575063288211822,-0.1530391722917556,-0.0422471016645431
0.713183349609375,-0.2128224472735077,-1.3624806312404572,8.940279838413,-0.6919240355491638,0.4034501314163208,-0.2066413909196853
0.733233642578125,0.0408934436634182,-1.4744582203000782,9.799587222006917,-0.6594581604003906,0.5740771293640137,-0.3408635258674621
0.753283447265625,0.4189295417521149,-1.3449964124761522,10.423098475301265,-0.4324246942996979,0.5147789716720581,-0.4205419719219208
0.773333740234375,0.7208993951831012,-1.0784408406451345,10.628660795378684,-0.2621291875839233,0.4316478371620178,-0.4998164176940918
0.793383544921875,1.3549563732154666,-0.8863525538425892,11.890610821986195,-0.4386093318462372,0.3384550213813782,-0.4119074940681457
0.8134326171875,1.874831603207439,-0.6492984593711794,11.685029797208308,-0.468403697013855,0.1512996405363083,-0.2815849483013153
0.833482421875,1.962267602337152,-0.3604921850264072,10.083100796771047,-0.2552662193775177,0.0762444734573364,-0.1304039061069488
0.85353271484375,1.870562109194696,-0.3778288850788027,9.276284063392875,-0.1369714885950088,-0.1146336197853088,-0.044412761926651
0.87358251953125,1.7777241048909722,-0.3794136700522154,8.19414349144697,0.009383269585669,-0.2101855874061584,0.0743448063731193
0.893632568359375,1.8108667882971463,-0.1297947661053389,6.603571751326323,0.1945093721151352,0.0457780212163925,0.3195489346981048
0.913682373046875,1.7907076512351632,0.2164903951965272,5.85552226421535,0.355397492647171,0.4508479535579681,0.5958101153373718
0.933732666015625,0.9387624669723212,0.1925754127323627,5.076380888748169,0.5545595288276672,0.6856072545051575,0.6301603317260742
0.953782470703125,0.0787856962168589,-0.2567956637084484,5.110130013614893,0.5948442816734314,0.6143794059753418,0.6374318599700928
0.97383251953125,0.5013878985997289,0.0874865602731704,3.2475375681251286,0.6397822499275208,0.3544906675815582,0.8826466202735901
0.993882568359375,-0.0090161770831793,0.6217426361866295,0.9485217905730008,0.3989515900611877,0.005832489579916,1.1079778671264648
1.013932373046875,-1.6737337151929734,0.6509042871326207,-3.673685589888692,-0.1980713903903961,-0.9817460179328918,0.8403753042221069
1.033982666015625,-2.832787430949509,-0.0892392491593956,-10.080970799005032,-0.7414014935493469,-2.2706141471862797,0.2579169273376465
1.054032470703125,-2.2078910069070754,0.7069732342265546,-20.73060657787323,-0.3462923765182495,-2.073089599609375,0.0649499744176864
1.074082763671875,-1.58677497818619,3.049220689131319,-27.68275094385147,0.3065037727355957,-0.3465891182422638,0.6846634745597839
1.09413232421875,-2.008233380828797,2.5146499943107363,-23.75469604061842,0.4515302181243896,0.1152928844094276,0.7383264899253845
1.1141826171875,-3.8789354830160736,0.7943878983072936,-16.076156969976424,-0.0678468197584152,0.1113224774599075,0.172949269413948
1.134232421875,-3.024062574738264,0.351287864959985,-10.574253497886655,-0.7200765609741211,0.1461250782012939,-0.1576562225818634
1.15428271484375,-0.548466533704102,0.4853907035227864,-10.8651115901947,-0.5502254366874695,-0.2297151237726211,-0.0463121980428695
1.17433251953125,1.17185766775012,0.5631318225901574,-10.679804122638702,0.0576315522193908,-0.3796620965003967,0.4171921610832214
1.194382568359375,1.4578710965059696,0.2308179765608161,-5.81098461883068,0.4559570550918579,-0.402079164981842,0.7549543380737305
1.214432373046875,-1.5807913737319408,-1.1946826630204914,-0.1594289299339056,0.528662383556366,-0.1997344642877578,0.0586682334542274
1.234482666015625,-1.1852094628848135,-1.509555398774892,6.191990015053749,0.1387865990400314,0.3642529547214508,-0.4210116267204284
1.254532470703125,0.4929546359710395,-1.3066507535994052,9.44064168190062,-0.0525844097137451,0.7157738208770752,-0.6220393180847168
1.274582763671875,1.4023472160741686,-0.8927610326454043,10.776233867824075,0.0660103633999824,0.8364081978797913,-0.5990612506866455
1.29463232421875,1.5627122578144073,-0.6994182888023555,12.46544250778556,0.0477607399225235,0.8796001076698303,-0.6207332611083984
1.3146826171875,0.8843024163797497,-0.9765344176143408,13.354059572494029,-0.0271469838917255,0.8787049651145935,-0.8269858360290527
1.334732421875,1.6446008519500492,-0.3530940375991165,12.858745075523853,0.0120755191892385,0.9924914836883544,-0.7398037910461426
1.35478271484375,2.764565250855684,0.0267215643174946,13.19271399528384,-0.0037579173222184,0.5191479325294495,-0.4358086585998535
1.37483251953125,2.369126255610585,-0.0234736684374511,13.150887946945428,-0.1462843865156173,-0.0295779947191476,-0.2854225933551788
1.394882568359375,1.987636729132384,0.0319398834876716,11.905008765172958,-0.2269783020019531,-0.2991732954978943,-0.1730000674724578
1.414932373046875,0.7671545850753784,0.0195205468975007,8.926409133970736,0.0684365332126617,-0.0936958119273185,-0.2336049824953079
1.434982666015625,0.4566499083373695,0.0970693582631647,7.238375967529415,0.1834528893232345,0.3172342479228973,-0.3158642947673797
1.455032470703125,0.8532702953867614,0.2641479261673987,7.113627890354395,0.0985430777072906,0.8034647703170776,-0.226005345582962
1.475082763671875,0.9633101943820714,0.4194454553849995,6.563914863720536,0.1913858205080032,0.9027696251869202,-0.0538078621029853
1.49513232421875,0.9128583565175532,0.6768307555496692,5.779345033463835,0.4472313523292541,0.9854885339736938,0.1942108273506164
1.5151826171875,0.6885210472129285,0.5341708818480372,4.729873389932513,0.48460453748703,0.7019594311714172,0.3240299224853515
1.535232421875,0.0552518585573881,0.1973392661333084,2.876310054072737,0.3113385140895843,0.2884873747825622,0.4220914244651794
1.55528271484375,-1.248125499394536,-0.2329227668203413,-0.1382633923083543,-0.1951667964458465,-0.0674903765320777,0.324063092470169
1.57533251953125,-2.972172520764172,-0.220768072515726,-5.71236291655898,-0.7454046010971069,-1.2742232084274292,-0.1338592022657394
1.595382568359375,-2.678236920706928,-0.1736256514601409,-16.857704822063447,-0.421678364276886,-2.502011775970459,-0.357394129037857
1.6154326171875,-2.2336530785426496,1.0674174884580074,-25.74368374596834,-0.1051049977540969,-1.3227605819702148,-0.0914233028888702
1.635482666015625,-2.756486573818326,1.4273096617646517,-25.93825471643209,-0.1986779421567917,0.559699296951294,-0.0725928917527198
1.65553271484375,-2.112662015813589,1.1063351020038128,-21.965600793015955,-0.1225082427263259,0.9165486693382264,-0.0525947734713554
1.675581298828125,-0.9783950969196856,1.387954533584416,-16.780609891945122,-0.0729735866189003,0.0952004939317703,0.0144154196605086
1.69563134765625,-0.080311006087996,0.8125164063245057,-14.972792408215998,0.2194493412971496,-1.1583696603775024,0.0150987422093749
1.71568115234375,0.4586696506619453,0.7440026959381997,-12.419116809940338,0.241248682141304,-0.625126838684082,0.2125905454158783
1.7357314453125,-0.95024393819049,0.8740813204862177,-7.483048062723874,-0.3161661624908447,0.4655245542526245,0.2280451506376266
1.755781494140625,-0.6094236912310123,-1.21507926210016,1.2678431762993334,-1.036456823348999,0.6074324250221252,-0.0735204443335533
1.77583154296875,-0.7175709083475172,-1.240327685125172,4.03643286036551,-0.6043616533279419,0.2644849121570587,-0.5013092160224915
1.79588134765625,1.9633054209522904,-0.8041955910943448,8.650388545310497,-0.3686335682868957,-0.2636348307132721,-0.5130146145820618
1.815931396484375,3.0621941524729133,-0.0922995135128498,8.67089883389771,-0.3920498490333557,-0.2808935940265655,-0.4180824160575866
1.8359814453125,4.042361081370711,-0.6955795143570751,10.602903253787757,-0.0812842100858688,0.8737472295761108,0.1206900179386138
1.856031494140625,1.8607501786239444,-0.765148140623793,11.133421166086196,0.1001213192939758,-0.2531873285770416,-0.2620469927787781
1.87608154296875,-0.1627241355543956,-1.1481409843370318,11.938803482747078,0.2388514727354049,-0.7701285481452942,-0.7446541786193848
1.89613134765625,-0.3037240036219358,-0.5699982742935419,12.616608051764963,0.1289156377315521,-0.901296317577362,-1.0472747087478638
1.916181396484375,1.81330848236084,-0.2523793085709214,12.794812409317492,-0.0182698182761669,-1.0250660181045532,-1.0725699663162231
1.9362314453125,2.5114602583587167,0.2362261192146688,11.606530845510958,-0.2734969854354858,-2.043459892272949,-0.9805709719657898
1.956281494140625,4.475691708114743,-0.4527966669753193,15.228347716474532,-0.3632820546627044,-0.1365715116262436,-0.6000927090644836
1.976331298828125,8.05923350121975,-3.814200852777064,13.079395074617862,-0.9492926001548768,-0.0247859861701726,0.3811298012733459
1.99638134765625,1.9304269414402544,0.5428183352166787,9.335142495074868,-0.9964509606361388,0.4276484847068786,0.657975971698761
2.016431396484375,2.028916103373468,-0.4651547748975455,6.584036445251106,-0.5343509316444397,1.509565353393555,1.041365385055542
2.0364814453125,1.2906208252966402,-0.3611516718484461,6.643075494197011,-0.4884414970874786,2.163438320159912,1.4284557104110718
2.056531494140625,0.8802703113194554,-0.189568650398124,5.671472687765956,-0.2613263428211212,2.1151747703552246,1.5178331136703491
2.076581298828125,0.1127785484452731,-0.8982268968358635,3.030632600778341,0.0989484935998916,1.6142367124557495,1.5111122131347656
2.09663134765625,-0.4357538353029638,-0.5997801029644906,1.449997148260474,-0.2838796377182007,1.2451609373092651,1.918850660324097
2.116682373046875,0.1567995312783867,-0.4514448870401829,-5.280754875823855,-0.5606488585472107,-0.794653058052063,2.046241044998169
2.136732421875,-2.898742835155129,0.6534319789793342,-18.26238106560707,-0.029703440144658,-3.552278995513916,1.0228840112686155
2.156782470703125,-6.298172507968545,-0.0040888402162119,-27.49832259721756,-0.0014079899992793,-3.213774919509888,-0.0935032963752746
2.17683251953125,-6.78931176508069,2.9214582325711844,-29.89742488889694,-0.2360475361347198,1.058406114578247,-0.0704279541969299
2.19688232421875,-4.610233157290518,5.149997329100966,-28.968979671669004,0.5598628520965576,2.569852113723755,0.1480891555547714
2.216932373046875,-3.111439537157118,3.1650869561925528,-19.703517446541785,0.6456104516983032,1.1880788803100586,-0.0927797555923461
2.236982421875,-2.5251184890940785,1.0992673555746677,-10.959481480240822,0.1160116344690322,-0.1395967453718185,-0.5031489729881287
2.257032470703125,-1.872361559832096,1.463596634545922,-9.46081703944504,0.0879268422722816,-0.0756470188498497,-0.7579236626625061
2.27708251953125,-0.9916649128593504,1.5034282941967247,-7.621211501789093,0.2510485053062439,0.8742321729660034,-0.8466247916221619
2.29713232421875,0.4688208961896598,1.0631564700126648,-2.1049919195771216,0.4434957206249237,1.1629457473754885,-0.9059563875198364
2.317182373046875,1.877973992886394,0.3437200600542128,4.760329902994632,0.622306764125824,-0.0704467073082923,-1.0254329442977903
2.337232421875,2.922982957920432,0.5831418335050345,10.91571365018487,0.4143343567848205,-0.5237447023391724,-0.9231719970703124
2.357282470703125,3.4763811028078195,1.0029302571088077,14.597982944023608,-0.0655945166945457,-0.001574988476932,-0.5575159788131714
2.37733251953125,1.9616700748354197,0.3689226711761206,15.43404564563036,-0.2824825942516327,0.0820942297577858,-0.4754773676395416
2.39738232421875,0.5098857508972287,-0.4972655214400961,15.941861896777151,-0.4154431521892547,-0.1698237061500549,-0.6481597423553467
2.417432373046875,0.6578190349571407,-1.2413834777884185,17.78760666784048,-0.8682020902633667,-0.037250492721796,-0.6297560930252075
2.437482421875,0.5573004860881716,-1.4482842068627475,16.593553534895182,-1.1403915882110596,-0.0734913870692253,-0.7087734937667847
2.457532470703125,1.0030689349271356,-1.4834262473925948,13.850400489902496,-1.203899621963501,-0.3882003724575043,-0.7054924964904785
2.47758349609375,1.3808696898899973,-1.861799541546404,12.023456280899047,-1.31799578666687,-0.5514060854911804,-0.7058640122413635
2.497633544921875,1.5243994782939552,-2.0937495178118346,8.726171223786473,-1.2486851215362549,-0.3348726630210876,-0.6928756237030029
2.517683349609375,2.9515803991124034,-1.6630713052727282,6.034070905160903,-1.0717965364456177,0.4679262638092041,-0.2172305732965469
2.5377333984375,4.220373423482477,-1.1857469307623802,3.4492291842490435,-0.6139965057373047,0.998198926448822,0.4179166257381439
2.557783447265625,3.539159630542993,-1.4234301899828017,3.495274896109104,-0.0306635554879903,0.7961439490318298,0.7803726196289062
2.57783349609375,2.156948316785693,-1.3798624125435948,3.4782816757321355,0.5245109796524048,0.4170520007610321,0.9946407079696656
2.597883544921875,1.179324642629921,-1.080610293638706,3.335737245103717,0.7286234498023987,0.2596814930438995,1.1446269750595093
2.617933349609375,0.629089784079045,-0.2613929283708334,2.875712088179588,0.5214648842811584,0.3659856617450714,1.549712300300598
2.6379833984375,-0.4732223460189997,0.4546118266385048,-1.3980822521060703,0.3094361126422882,-0.096442200243473,1.8035889863967896
2.658033447265625,-2.7327584922283887,-0.3157016243265941,-6.667215079197288,0.059131670743227,-2.042321920394897,1.2862846851348877
2.67808349609375,-4.432011264081299,0.2831216893697157,-16.202043111270665,0.2342223972082138,-3.698730707168579,0.269602358341217
2.698133544921875,-5.921798278677463,2.6601278480425474,-26.01686823441982,0.3063347041606903,-1.8838448524475095,-0.1525015980005264
2.718183349609375,-4.881663787811994,5.222779072195292,-30.035493635416028,0.6863627433776855,0.8646653294563293,0.0967090129852294
2.7382333984375,-3.753566351333261,5.178038597714901,-26.57714883229732,1.2867809534072876,1.2084550857543943,0.1428277939558029
2.758283447265625,-2.6967732788726684,4.307018272234499,-17.18712966865301,1.2423453330993652,0.4496133923530578,0.0344026945531368
2.77833447265625,-1.1653896407797932,2.4913591350942847,-9.98906525324583,0.8287692666053772,-0.1100138872861862,-0.1116408184170723
2.798384521484375,-0.2277108043257147,2.3273094134919345,-7.94222157125473,0.6823415160179138,0.1705372631549835,-0.1201723963022232
2.818434326171875,0.9422926869250834,1.912818219513446,-5.350466709953547,0.7105840444564819,0.2639583945274353,-0.2133424133062362
2.838484375,1.4850573557257651,1.2455617863863706,-0.3217594265282154,0.6207112669944763,0.1965798586606979,-0.4262117147445678
2.858534423828125,1.9325192375443876,0.8268375579480082,5.190763054731488,0.3284729123115539,0.4547021687030792,-0.5015021562576294
2.87858447265625,2.770119085590541,0.886640503938496,10.021268902236224,0.0651405900716781,0.5016703009605408,-0.2914741933345794
2.898634521484375,2.371242078720778,0.2680543590214103,12.29820144279599,0.0470926091074943,0.2789885401725769,-0.0847374200820922
2.918684326171875,0.934785526165366,-0.5528722943823784,14.285567684423922,-0.0252043064683675,0.3244355022907257,-0.0937430262565612
2.938734375,-0.9898527488708496,-1.303129885996878,16.0206671379447,-0.2514991760253906,0.1997687965631485,-0.4495368301868438
2.958784423828125,-1.9082286997660995,-2.526917062948644,17.26178480440378,-0.7032158374786377,-0.0445640012621879,-0.8108155727386475
2.97883447265625,0.1080440581361297,-1.9080606497228143,14.77448517383337,-0.7452137470245361,-0.3767399787902832,-0.7438675761222839
2.998884521484375,2.4750284702792764,-1.2245096460074183,11.922826161414385,-0.68952476978302,-0.6230310201644897,-0.3101171553134918
3.018934326171875,3.373706033492088,-1.6811156421378255,10.895228496038913,-0.8342943787574768,-0.7611080408096313,0.0935184583067894
3.0389853515625,2.325533197599649,-1.8793309604533013,8.080369812750815,-0.5512676239013672,-0.4886682331562042,0.1819914877414703
3.059035400390625,0.8475327746480703,-1.586408336830884,5.787247769412398,-0.1241742596030235,0.0307458005845546,0.0211146287620067
3.07908544921875,1.7233425263620912,-1.7941361643791198,5.71068650777936,-0.037207257002592,0.4824950397014618,0.1088925153017044
3.099135498046875,2.2210957947865126,-1.1253701304066923,4.987113290277123,0.1972895115613937,0.760822594165802,0.3551439344882965
3.119185546875,2.102689487853646,-0.6677465547315776,4.031371485322714,0.4068353474140167,0.9461106657981871,0.6945192813873291
3.1392353515625,1.9734139963820576,-0.3507091882891953,4.128129147288203,0.4503833055496216,1.010980248451233,1.0123075246810913
3.159285400390625,0.5093465294539928,0.6191590494342148,0.8740794207900762,0.8321526050567627,0.8298200964927673,1.1101664304733276
3.17933544921875,-0.1866538771962747,0.7475313084557652,-0.5645283184498548,0.5631974339485168,0.3060182929039001,1.1581449508666992
3.199385498046875,0.2589214602233842,0.916815423580259,-3.9851515859395263,0.0362780876457691,-1.3145614862442017,1.2329869270324707
3.219435546875,-1.1991999943144618,2.578186062414944,-13.367473180818555,0.1002248004078865,-2.788404703140259,0.9759737849235536
3.2394853515625,-3.9653652277126903,2.707668474635481,-22.63068850380182,0.2998377084732055,-1.7190024852752686,0.452919453382492
3.259535400390625,-4.163685321576893,3.642404900962114,-25.73738026190996,0.4777911007404327,1.1206238269805908,0.3867043554782867
3.279586181640625,-3.0235487799972294,4.121143233923614,-21.416779162263868,0.6131938695907593,2.043987274169922,0.4262405931949615
3.299636474609375,-1.9292055829517545,3.337841816167533,-13.861460813099145,0.4591527283191681,0.7043281197547913,0.3542028069496155
3.319686279296875,-1.416551974776387,2.3585344267085198,-10.541803180658816,0.3485746085643768,-0.745637834072113,0.1657313704490661
3.339736572265625,-1.4158689609482884,2.40397851941362,-9.850133752417564,0.2710278332233429,-1.146095871925354,-0.0611449442803859
3.3597861328125,-2.6084189958542585,1.552240840421617,-7.344163323646783,-0.0880085676908493,-0.6911734938621521,-0.6192440986633301
3.37983642578125,-2.950416031508148,0.55790714674443,-3.333970235431194,-0.5508937835693359,-0.1515147984027862,-1.2078940868377686
3.39988623046875,-0.969116177247092,0.2125495486162602,-0.3292319543659687,-0.6653001308441162,0.1388727128505706,-1.4349594116210938
3.4199365234375,1.1439820380266754,0.616561214960739,3.056354486533999,-0.3995668888092041,0.1427334696054458,-1.265250325202942
3.439986328125,2.1036694388017056,0.8845706388618797,6.927294586881994,-0.2588653564453125,0.1616079807281494,-0.809036374092102
3.460036376953125,3.3559915131032465,0.4435070067130029,11.169419531184436,-0.2791126668453216,0.0536706484854221,-0.3091712296009063
3.48008642578125,1.3599801927268504,-0.6539802605118602,13.312366795146463,-0.3078212738037109,-0.1339659988880157,-0.346944510936737
3.500137451171875,-0.1522302506014704,-1.313940764477104,15.398745199668406,-0.6659907102584839,-0.1079385429620742,-0.5954537987709045
3.520187255859375,0.7854951284080743,-1.5231754894569516,14.789921227896212,-0.8517964482307434,-0.0677788257598877,-0.5960062742233276
3.540237548828125,1.154395368556678,-1.3009215622976422,12.027882280647754,-0.6889984607696533,-0.3376337885856628,-0.497949481010437
3.560287109375,2.1126466721139847,-1.5848025090694426,9.945683207637073,-0.621671736240387,-0.584993302822113,-0.1668081432580948
3.58033740234375,2.388251519580185,-2.393440904916823,8.662666427603364,-0.6335771083831787,-0.6634381413459778,0.0675989314913749
3.60038720703125,0.9679485217072068,-2.865398491697013,6.197932849106192,-0.4749132692813873,-0.4940124154090881,-0.0662597492337226
3.6204375,-0.144127973492816,-3.065447016789019,5.113351898270845,-0.3129017353057861,-0.0355055443942546,-0.3925120830535888
3.6404873046875,-0.1548738239128142,-2.5003753852427004,4.439315157353878,0.0312438271939754,0.2791900038719177,-0.6715878248214722
3.660537353515625,0.400538766069524,-1.8940144425831733,3.607183949977159,0.5785549879074097,0.3404580056667328,-0.7660632729530334
3.68058837890625,0.7668342670798302,-1.3182457681946456,2.905917841351032,1.0772302150726318,0.2597594559192657,-0.6522184610366821
3.700638671875,1.7338073678836226,-0.9602442309401928,2.168393255385757,1.2856425046920776,-0.0294796377420425,-0.2651812434196472
3.720689697265625,0.9147637517474592,-1.484646290706843,0.4772048397839069,1.134770750999451,-0.2687988579273224,-0.1478176563978195
3.740739501953125,0.007169526303187,-1.5910685837268828,-1.8325947821110489,0.6932214498519897,-0.8699142932891846,-0.1948533356189727
3.76078955078125,-0.986644673544541,-0.78771097782664,-7.184232873931527,0.6367564797401428,-1.3868412971496582,-0.5352696776390076
3.78083935546875,-2.0268948266789315,0.2094554550584405,-13.267823889064788,0.9516794085502625,-1.7998965978622437,-0.7708447575569153
3.8008896484375,-2.745864057517052,0.1502256327807903,-17.64086829265356,1.2325079441070557,-1.7213997840881348,-0.943920910358429
3.820939453125,-3.625930736023188,0.9065259386256336,-18.87303575993776,1.189379096031189,-0.7363043427467346,-0.7821848392486572
3.84098974609375,-3.481906880491972,1.2390392527498304,-16.362970170807838,0.8893617391586304,0.1133521497249603,-0.0407318770885467
3.86103955078125,-3.625218496100605,0.9397771969728173,-12.76342826001644,0.4438793659210205,0.3087571859359741,0.2671785950660705
3.88108935546875,-3.154986125677824,-0.2421947452954947,-10.622240406942367,-0.0074584130197763,0.02419064193964,-0.0140423635020852
3.901140380859375,-2.6965046910643578,-0.333689664427191,-8.367077799642086,-0.233288288116455,-0.0098240189254283,-0.0360651835799217
3.921190673828125,-1.9572890832722185,0.1911034404836595,-4.473931128183007,-0.3787694871425628,0.1203029826283454,-0.1560436189174652
3.941240478515625,-1.9344743171349168,0.7978193340606987,-0.4255845426619052,-0.4331572949886322,0.3335293233394623,-0.5626398324966431
3.96129052734375,-0.7693519489891827,1.6049121079012751,3.6199048998624086,-0.4977509379386902,0.262793093919754,-1.1731226444244385
3.98134033203125,2.6274825927644967,0.9323732043266296,5.526897043570876,-0.475445419549942,0.2698074579238891,-0.8439780473709106
4.001390625,4.308677437618375,1.6071404514752328,8.117320948529242,-0.6925695538520813,0.5985965728759766,0.0287974718958139
4.0214404296875,3.4477319314286112,1.230565438915044,8.187047980228066,-0.3725607991218567,0.6171615719795227,0.2348743677139282
4.04149072265625,1.8856914353959264,0.618480565650761,8.506696113690733,0.0992288738489151,0.4463989734649658,-0.0509798116981983
4.061540283203125,1.9129469604596492,-0.1472362417064607,10.534237129318711,0.1008307635784149,0.4559988677501678,-0.157207190990448
4.081590576171875,2.1648678577385843,-0.0543073442488908,11.768651498746872,-0.1013005450367927,0.4905589520931244,-0.2409230470657348
4.101640380859375,2.228379814314842,-0.0403840328365564,11.361941167902948,-0.2988993525505066,0.4291492998600006,-0.2143391668796539
4.121691650390625,2.829116048960388,0.0578925092592835,10.517913771027326,-0.53131103515625,0.4504006803035736,0.1443318426609039
4.141741455078125,2.833884870797396,0.0360671925507485,8.315956684213877,-0.2936185300350189,0.0856587961316108,0.3242992162704468
4.161791748046875,0.8724958779256791,-0.2033748930357396,5.463002371287345,0.2389266192913055,-0.1493348777294159,0.082041285932064
4.18184130859375,-0.0686403324406594,-0.6527468462593853,5.57274869416356,0.0679287239909172,0.1321233958005905,-0.1959369927644729
4.2018916015625,-0.124867611901462,-0.7104198675490916,5.466493720534444,-0.1703914254903793,0.5890074968338013,-0.3741081357002258
4.22194140625,0.8401650223590433,-0.7346933080621063,2.888571569752693,-0.0267091915011405,0.6329876184463501,-0.2781378328800201
4.24199169921875,1.5162150027945638,-0.9341801076181232,2.137192645958066,0.0533640123903751,0.2218930572271347,-0.2602878510951996
4.26204150390625,0.1603661742513999,-0.8364803424969315,-1.665855236902833,0.3186934292316437,-0.3936808407306671,-0.3472146093845367
4.282091552734375,0.5736316623598336,-0.873625685673207,-5.1115749517261975,0.581785261631012,-1.0994492769241333,-0.3135701417922973
4.302142333984375,0.2604175074674189,-0.5188510015107691,-5.988356617212295,0.029943523928523,-0.4722921848297119,-0.318824291229248
4.322192626953125,-0.935508068286255,-1.488002469266951,-6.646213207700848,-0.8052629828453064,0.1942430734634399,-0.3910129070281982
4.342242431640625,-0.8918874646812677,-0.5278877099253237,-12.12319325093627,-0.5344831943511963,0.6574409008026123,-0.1570917665958404
4.362292724609375,0.1956387092931196,0.8076798530135303,-15.175691646564006,0.1165380030870437,0.671360969543457,0.2127613127231598
4.382342529296875,0.5699950228905305,0.4876297876864671,-13.34333476486206,0.400927722454071,0.2935746908187866,0.5762855410575867
4.402392578125,-0.9871495543267578,0.9766690037794412,-12.49430619869828,-0.0139396302402019,-0.8968334794044495,0.5723339915275574
4.4224423828125,-2.80488527854532,2.2916553317867216,-10.91888058978319,-0.2229703515768051,-0.7931118607521057,0.6950165033340454
4.44249267578125,-3.45977220557332,4.088329051819444,-8.260839777147769,-0.4758681654930115,0.6138450503349304,0.7426872253417969
4.46254248046875,-3.042227176982164,3.477152087180316,-4.513694398772716,-0.5536648035049438,1.446177363395691,0.7367538809776306
4.482593505859375,0.5748709218312055,-0.8510206167638301,0.0355190571486949,-0.8746103048324585,1.665080428123474,1.162994384765625
4.5026435546875,0.0436744161514565,0.2377200110342353,4.417736362752319,-1.2215033769607544,1.6681143045425415,1.3185993432998655
4.522693359375,0.2101508899766951,-0.1567510524941608,5.172696067643165,-1.2953630685806274,1.544542908668518,1.420125961303711
4.542743408203125,0.9376263756144791,-0.4113083626912907,4.598430783554911,-1.1940099000930786,0.9124590754508972,1.597184419631958
4.56279345703125,1.2233403830323368,-0.9849166076429188,5.789513376256823,-0.9518685340881348,0.1972965151071548,1.8171193599700928
4.582843505859375,-0.0814466955870389,-1.05359296124503,6.186445824930072,-0.1011042669415474,0.6488893032073975,1.4397034645080566
4.6028935546875,-1.548492301543057,-1.6759508067205546,5.989149228894711,0.515344500541687,0.1872078031301498,0.793336808681488
4.622943359375,-1.743607169625163,-1.6587565108135345,7.691980151495337,0.6622208952903748,0.14335498213768,0.2940563261508941
4.642994384765625,-0.5955011835362762,-1.2031502663102,8.715646907162666,0.6882737278938293,0.3277497589588165,0.2082304805517196
4.66304443359375,-0.2753710387103259,-1.083939438061416,8.632208745497465,0.731013298034668,-0.1732466220855713,0.2761289477348327
4.683093505859375,-0.5732376946061849,-1.1617119751803575,8.543621530506014,0.7703244686126709,-0.6996287107467651,0.1452179849147796
4.703143310546875,-1.1242368885930627,-0.9499174096498638,7.316017425614595,0.8951870799064636,-0.8253681659698486,-0.2688853740692138
4.723193603515625,-0.624712591908127,-0.2897483775004744,5.58878855933845,1.2283729314804075,-0.4896972477436065,-0.522714376449585
4.743243408203125,-0.2718581352185458,0.1479536692608147,4.634300553837418,1.3720965385437012,-0.1675283461809158,-0.354771077632904
4.76329345703125,-0.3660780223347246,-0.7436286019288003,3.714288818433881,1.1333078145980835,0.092823177576065,-0.1227661594748497
4.78334326171875,0.7406555044021457,-0.570671351249516,1.255631929501891,0.8221635222434998,-0.4723547995090484,-0.0659104511141777
4.8033935546875,1.4147735669270156,-0.2254723046839237,-2.441432782408595,1.0738965272903442,-1.2556604146957395,0.0526807084679603
4.8234443359375,0.5849093546342105,-0.7081640514463186,-4.946263978016376,1.2918875217437744,-1.3247147798538208,0.0715382993221283
4.843494384765625,-0.637649741827324,-1.1271282991856335,-7.661475123116373,0.7559237480163574,-1.4383479356765747,0.2390545308589935
4.86354443359375,-1.3646378092743456,-0.7018363097295165,-10.554903485250472,0.1789266765117645,-1.117523193359375,0.0954350531101226
4.88359423828125,0.1832362873051315,-0.9548289278931916,-16.689143906646965,0.3158752620220184,-1.2333239316940308,0.1819455027580261
4.903644287109375,-1.7130160703979431,-0.553835951782763,-18.79446900370121,0.3975629806518554,-0.5015005469322205,-0.1908974051475525
4.923694580078125,-2.398899462583661,-0.9444719306603072,-13.29988140758276,-0.489334225654602,1.0328606367111206,-0.2230947166681289
4.943744384765625,-1.2562377864405512,-0.9808445358984172,-9.06639043611288,-0.95430326461792,1.355055570602417,-0.2080965787172317
4.96379443359375,0.2115011355418711,-0.8641367034465074,-6.557147269281745,-0.5596634149551392,-0.2527836561203003,-0.4155169725418091
4.98384423828125,1.131927077769488,-0.2028141904130578,-2.4184756851911544,0.0573138073086738,-1.9367355108261108,-0.4012909233570099
5.003895263671875,1.984815680362284,0.4164664395742118,1.295748251312971,0.1092420145869255,-2.215635299682617,-0.0825012922286987
5.0239453125,0.6080111940845847,0.3077634882710874,4.374503954747319,-0.3112078011035919,-1.033116579055786,-0.1046458557248115
5.043995361328125,0.0961518050268292,0.5469587594896554,4.123881426715851,-0.2482161372900009,0.4285155832767486,-0.2072582840919494
5.06404541015625,1.397796128641069,0.5302662756249308,6.226635796499252,-0.2558662295341491,1.3353785276412964,-0.2720855474472046
5.08409521484375,1.7982231414318084,0.3438029160320758,9.723341602194308,-0.5132465958595276,1.3377070426940918,-0.2836463153362274
5.104145263671875,3.1522949868977066,0.5541521781250834,10.56622684329748,-0.7065858244895935,0.9411488175392152,0.0024632303975522
5.1241953125,3.0106334765836595,0.7128601003080606,10.36027640068531,-0.4414080381393432,1.0275695323944092,0.4445276260375976
5.144245361328125,2.1039466483078897,0.6483231845982372,10.410566325986384,-0.1268467605113983,0.8817530274391174,0.7527682781219482
5.16429638671875,0.7795074323005974,0.1107002626001834,10.283506464737654,-0.1140068024396896,0.586571216583252,0.5710254311561584
5.1843466796875,-0.2675424639765173,0.0155545658759772,9.619321255749464,-0.1105249598622322,0.4911791384220123,0.2361555248498916
5.204396240234375,0.515900261946395,0.6031421267434954,7.703700399905442,0.085030123591423,0.6794430017471313,0.2125509232282638
5.2244462890625,1.3912737411350011,0.9992676429480314,6.412424325570464,0.2053409814834594,0.7399975657463074,0.5223714709281921
5.244496337890625,0.838425119889155,1.3645736579969523,6.0327592380404464,0.24073126912117,1.0160808563232422,0.8294985294342041
5.26454638671875,-0.1179769025396555,1.009288978485763,4.73347755190432,0.4162382781505584,1.1742522716522217,0.934698522090912
5.284596435546875,-0.7973756819464266,0.6605091508239507,3.4770652856796977,0.6233320832252502,1.0538537502288818,0.8430719375610352
5.304646240234375,-0.4428223123844713,0.0581277793198823,2.6956974663347006,0.4902511239051819,0.7947635650634766,0.9711579084396362
5.324697265625,-0.0588885345593094,0.0820189425170421,0.799406749382615,0.1437246203422546,0.4529366791248321,1.347168207168579
5.34474755859375,0.189120888364315,0.1807502426430582,-2.545427994412184,-0.1911808848381042,-0.1823715418577194,1.7857986688613892
5.36479736328125,-1.2791411076441406,0.3777554545164108,-6.867130333298444,-0.627740740776062,-0.646415114402771,1.7182800769805908
5.38484765625,-2.529572253632545,-0.7880179248839616,-14.026239871889352,-0.9974337816238404,-0.905591607093811,0.8216331005096436
5.4048974609375,-2.3992777943767605,0.1541204482622444,-22.413059313833717,-0.4537284970283508,0.3148436248302459,0.3345436453819275
5.424947509765625,-0.6153863259624689,2.057110370592028,-23.2902723564744,0.1259230375289917,1.6061829328536987,0.4276656806468963
5.444997314453125,-0.4146917580518871,1.1572338068529964,-17.61675325757265,0.2731077969074249,1.2435050010681152,0.2154077291488647
5.465047607421875,-0.924123554636538,-0.3166252785101532,-11.006773977291584,0.0615610480308532,-0.1758702546358108,-0.3064113557338714
5.485098388671875,-0.5862880225762724,-0.5832444170966744,-7.561682038977742,-0.2957774400711059,-0.7349244952201843,-0.6602092981338501
5.5051484375,0.6042968497365713,0.149038176561892,-6.44650428982675,-0.419841855764389,-0.1770553886890411,-0.5439119935035706
5.525198486328125,0.2215072735104709,0.7128362810410559,-3.839633107936382,-0.2277437299489975,0.0885165780782699,-0.3616533875465393
5.545248291015625,-0.2053052765764296,0.6594365531563758,1.1631079595834015,-0.1548842638731002,-0.3364542424678802,-0.2992998361587524
5.56529833984375,-1.0646563531816005,0.1011469829656183,5.464040482163429,-0.1156838834285736,-1.1054857969284058,-0.4838097095489502
5.585348388671875,-1.4965091624580322,0.4605526879295706,7.544606985536217,-0.2493918389081955,-1.2481168508529663,-0.6962969899177551
5.6053984375,-0.3181798875410109,0.3690099841333925,8.62776228748262,-0.4339812397956848,-0.5206048488616943,-0.7549567818641663
5.625448486328125,-0.0079896835796535,0.396163656257838,9.417110584187506,-0.350341647863388,0.2266553938388824,-0.6671620011329651
5.64549951171875,0.0837563242362812,0.2645306418746709,9.664403091013432,-0.0820629373192787,0.4072501063346863,-0.6920746564865112
5.665549560546875,0.6940332347631454,0.1862733899787068,11.04281559700966,-0.0760553404688835,0.0746543183922767,-0.5919068455696106
5.685599609375,1.348709149388969,-0.2625926595494151,12.285310397040844,-0.3065008223056793,-0.2720163762569427,-0.4574781060218811
5.7056494140625,1.2863948781646788,-0.4408814805150032,11.422235769867896,-0.4404386579990387,-0.6584204435348511,-0.3367815017700195
5.725699462890625,1.562013169634342,-0.5532815327703953,10.044860205703973,-0.5086201429367065,-0.7558109164237976,-0.0897422134876251
5.74574951171875,1.1481695528443905,-0.448138612036407,7.911703683394193,-0.3439158499240875,-0.6334016919136047,-0.0004959616344422
5.765799560546875,0.4162175793796777,-0.767383863786608,5.285248095589876,-0.0319799184799194,-0.4196207523345947,-0.066246323287487
5.785849609375,0.4828553032936528,-0.7636683503948152,5.176812270790339,0.0383582562208175,0.0968446284532547,-0.0649121776223182
5.805900390625,0.3412125707453116,-0.8681650091145187,4.79181634362638,0.1035571470856666,0.548803448677063,-0.061281606554985
5.825950439453125,0.2429194793734699,-0.9484684529505668,4.778979073885083,0.1498821228742599,0.954116702079773,0.036535620689392
5.84600048828125,0.3706984486769885,-1.0936826873101293,3.809136847385764,0.1322148293256759,0.7897540926933289,0.1352880746126175
5.866050537109375,1.1454057872194796,-1.4639632759012282,1.6082494356304406,-0.0320007316768169,-0.0645999312400817,0.3738541007041931
5.8861005859375,1.0673692654021083,-1.427999835985899,-3.3730490308880805,-0.0264901407063007,-1.353077411651611,0.4947256743907928
5.906150634765625,-0.5767686086786911,-1.153323355410993,-8.923042287886142,-0.0391143336892128,-2.1587655544281006,0.2149095386266708
5.926200439453125,-2.186240608374029,-0.7573148897148668,-13.894936381721497,-0.2505345344543457,-2.03703236579895,-0.1332313120365142
5.94625146484375,-1.7863639229424295,0.584459711170569,-19.97955206372738,-0.1840734928846359,-1.0070840120315552,-0.0182503331452608
5.96630126953125,-1.215771993604675,1.7433762834787367,-22.889054193305967,0.1620664000511169,0.174352765083313,0.3428408801555633
5.9863515625,-1.7375503538042305,1.81055260778144,-21.33270620982647,0.4334413111209869,0.6271551251411438,0.4715864658355713
6.0064013671875,-2.038271522348374,0.8489148766562342,-17.00452970649004,0.4166972637176513,0.6161807179450989,0.1437449753284454
6.02645166015625,-1.09312213081792,0.5653348125271499,-12.39164194303751,0.3293665945529938,0.468602180480957,-0.1580702662467956
6.046501220703125,-0.165601882947795,0.5771705040104687,-8.52289263073206,0.3659639358520508,0.3690719604492187,-0.2409429997205734
6.066551513671875,0.8626227917522191,0.3943393634401261,-3.7851644356459375,0.2735334634780884,0.528056263923645,-0.2424349784851074
6.086601318359375,1.2067409842785448,0.2671529532022774,0.5156120195895433,0.2395855486392974,0.4121518135070801,-0.1793569028377533
6.106652587890625,1.0732498478733004,0.2459415306083857,3.635361412191391,0.4326382875442505,0.2078071683645248,-0.2358302772045135
6.12670263671875,0.491235484028235,0.180228556856513,7.638231610172986,0.3461666703224182,0.3937529921531677,-0.375894546508789
6.14675244140625,0.7029833608727902,0.2175210534185171,10.556711995977162,0.1690665483474731,0.5802924036979675,-0.4294324815273285
6.16680224609375,0.9943268986102192,0.4346411248207092,10.731475857686997,0.2320553660392761,0.6025176048278809,-0.2960884869098663
6.1868525390625,1.4113203577332198,0.6906292715385556,10.654022031128406,0.4019412696361542,0.7560694217681885,-0.019584372639656
6.20690234375,0.7612245374392718,0.9581719547107816,11.082212372374531,0.5354041457176208,0.9450833201408386,0.1627351939678192
6.22695263671875,0.7429064251340926,0.9864487856462596,12.646611560362576,0.4711928963661194,0.8049613237380981,0.3010339736938476
6.247002197265625,0.1550185661457478,0.6651797729834914,12.640762834334373,0.3950585126876831,0.1039411127567291,0.2392991334199905
6.267053466796875,-0.0870444425288587,0.942124490751326,13.251508714079856,0.0111267017200589,-0.0594741888344287,0.2380036115646362
6.287103515625,0.0023658523485064,1.0641389051787555,11.527066263651848,-0.1905463337898254,0.0843720361590385,0.2704082131385803
6.307153564453125,-0.2487625793784856,1.0129206129863857,8.893386569812893,-0.0410730056464672,-0.0234937388449907,0.203076422214508
6.32720361328125,-0.6085005850367248,0.970987304881215,7.13786392146647,0.1964780688285827,-0.1240524500608444,0.1415435522794723
6.347253662109375,-0.1558391618136316,0.949109965724498,6.275953661897778,0.1990876048803329,0.1230900734663009,0.2186426222324371
6.367303466796875,-0.0934230376500636,0.7012722461059689,5.166139485606551,0.0849470123648643,0.4343738257884979,0.3560645878314972
6.387353515625,0.074053297400102,0.3728913556113838,2.835055668142438,-0.064548373222351,0.4421882927417755,0.5346692204475403
6.407404541015625,0.0556817744072526,-0.5714629400186241,0.4039022876858711,-0.3688769936561584,0.0719048380851745,0.5670576691627502
6.427454345703125,-1.0224801031660289,-1.1666248816631737,-4.497510741212964,-0.5261977910995483,-0.6514072418212891,0.3505461513996124
6.447504638671875,-1.5705607793577014,-1.5574185353204606,-10.292626175260542,-0.7429595589637756,-1.3770451545715332,-0.0196951106190681
6.467554443359375,-0.5604578541405498,-0.7385958684585988,-17.68245351797342,-0.6060373783111572,-1.121895432472229,0.0222057253122329
6.4876044921875,-0.6000378040526062,0.6915208135508001,-23.96600070374012,0.1150404661893844,-0.2546962201595306,0.1948091089725494
6.507654296875,-1.4135941478841003,0.567156767257303,-21.122799723064897,0.4526399970054626,0.2368184328079223,0.1045235022902488
6.52770458984375,-1.4415643970884382,-0.1936626234471797,-14.255188912773132,0.2821437418460846,0.0831896960735321,-0.0893199816346168
6.54775537109375,-1.227319150470197,-0.4371493082493543,-10.490982509481906,0.0640580803155899,-0.3060961365699768,-0.3071491122245788
6.5678056640625,-0.8658184459883719,-0.088595106036961,-8.55157511985898,-0.1297403275966644,-0.2858401536941528,-0.4195113778114319
6.58785546875,-0.3502946892041713,0.1913032008394599,-6.395100265803933,-0.232221782207489,-0.1406408548355102,-0.4545348286628723
6.607905517578125,0.0236130038429051,0.3729354870140552,-2.6758348280012605,-0.2161077260971069,-0.3884357810020447,-0.4923150539398193
6.627955322265625,-0.3164042561706155,0.5460080346360803,1.627133584320545,-0.1846183985471725,-0.9584323763847352,-0.5446907877922058
6.648005615234375,-0.5279233657605946,0.6627528380975127,5.636304343751073,-0.3126022517681122,-1.488519549369812,-0.6948492527008057
6.668056884765625,0.3195420427396893,0.6858791544020175,7.7287091689556835,-0.5188378691673279,-1.3894366025924685,-0.6289436221122742
6.688107666015625,0.7575808471746742,0.9837631998240948,8.286508471411466,-0.6961063146591187,-0.7433210015296936,-0.5515293478965759
6.708157958984375,0.6028495735377073,0.4168723900265991,8.847131014594435,-0.7919125556945801,-0.2078628987073898,-0.6711550354957581
6.728207763671875,0.6479857693374157,-0.1058509959381073,8.192666989153624,-0.6266977190971375,0.0874783396720886,-0.819341242313385
6.7482578125,2.044320300993323,-0.4144019082598388,8.306897763967514,-0.3983749151229858,0.172485202550888,-0.7368652820587158
6.7683076171875,3.0888518577739594,-0.3076498718287795,8.741325538298486,-0.1792733371257782,0.0016730539500713,-0.5131358504295349
6.78835791015625,3.2549665490821003,-0.4593091176092624,8.74305513857007,-0.0425628945231437,-0.374607115983963,-0.2325295358896255
6.80840771484375,2.512487263318896,-1.0949681970760226,9.04322700266838,-0.1836431175470352,-0.2136317491531372,-0.2618556022644043
6.8284580078125,1.085275801231712,-1.4541352709785105,7.467992532411217,-0.1457931995391845,-0.3277347087860107,-0.4572579264640808
6.8485087890625,1.17427320445925,-1.5977347636178134,5.737456441283226,0.0968973636627197,-0.2544849514961242,-0.8397299647331238
6.868558837890625,1.2592097879886626,-0.5872007535070181,4.106123067185282,0.4161044955253601,-0.4830178618431091,-1.0486680269241333
6.888608642578125,2.457896718214452,-1.0253737787809225,3.974846465024352,0.7207183241844177,-0.6007429957389832,-1.019132375717163
6.908658935546875,1.431343739586323,-0.2696379018858075,2.312827445283532,1.1143821477890017,-0.5760334134101868,-0.8507104516029358
6.928708740234375,1.2012342766210435,-0.1885977412730455,1.4432809917479752,1.25832998752594,-0.3659840822219848,-0.6199259161949158
6.948759033203125,0.8969001782767474,-0.1848725832700729,0.5311567947238683,1.0465483665466309,-0.2134055495262146,-0.3817433416843414
6.96880859375,0.579292318470031,-0.9481628941327332,-4.2179526260763405,0.9841108322143556,-0.504342257976532,-0.2322460561990738
6.988859619140625,-1.1333448356129228,-0.4597890100806951,-7.8806416056543585,0.3949825763702392,-0.8332275152206421,0.0902897045016288
7.00890966796875,-2.2814305826313794,-1.103020570628345,-10.854078155004975,-0.0991520956158638,-0.3810797929763794,0.4088629484176636
7.028959716796875,-3.3102547210618853,-0.3628215047568082,-17.398387570023537,0.5384519696235657,0.2266734540462494,0.4217831790447235
7.049009765625,-2.795459278552234,0.1961360278233885,-15.810350316816567,0.7254977822303772,0.8077030181884766,0.6805868148803711
7.0690595703125,-2.609103470987081,-0.3143650784932076,-10.120656328183411,0.3770863711833954,0.6187825798988342,0.7069010138511658
7.089109619140625,-2.256008118213713,-0.9722451959878206,-6.96053751579225,-0.0376416221261024,-0.0329622328281402,0.5411208271980286
7.10915966796875,-1.4424093234799802,-0.6491913457348942,-6.402400944206118,-0.1568129658699035,-0.1814747154712677,0.3567419052124023
7.1292109375,-0.91448683450222,-0.372242974705249,-5.891117893731594,-0.2295040488243103,-0.3101256787776947,0.3183762729167938
7.1492607421875,-0.8762932974472641,-0.015683745213598,-3.3155355840742584,-0.2514387369155884,-0.7365400195121765,0.1711837351322174
7.169310791015625,-1.6049116695098578,0.6325676893226801,0.4057745112985372,-0.4808934330940246,-1.1462937593460083,-0.2010331153869629
7.189360595703125,-1.1185497098021209,0.0044167935289442,3.464480529394746,-1.1597527265548706,-0.976528525352478,-0.3571273684501648
7.20941064453125,-0.5436079877570271,-0.4518867125235498,3.430068556705117,-1.6036819219589231,-0.5049715638160706,-0.5160717368125916
7.229460693359375,1.1399736061029135,0.5387111556261778,-0.2606967628002166,-1.1795154809951782,0.0895391851663589,-0.2959526181221008
7.2495107421875,2.5027467905491587,0.4353479579158127,0.609668605902791,-0.5525625944137573,1.0548973083496094,0.0252868998795747
7.269561767578125,2.4193493992857635,0.0891242444775998,4.511305457809567,-0.365817129611969,1.463729739189148,0.0720669105648994
7.289612060546875,2.1854522344753144,-0.4297948538333177,7.94906632258296,-0.3699342906475067,1.243194818496704,-0.0245508588850498
7.30966162109375,2.1871040933355688,-0.2938346239008009,9.044501844909789,-0.3076554834842682,1.0119009017944336,-0.0318100415170192
7.3297119140625,2.763763871344924,-0.0842966781906783,9.047209350302817,-0.0898061245679855,0.6861718893051147,0.1423712521791458
7.34976171875,2.2251541302666067,-0.3501480472750961,8.802814318484067,0.2541662752628326,0.6685006022453308,0.2576931715011596
7.36981201171875,1.1588628693595528,-0.2588461664974689,7.879963560262322,0.3835923671722412,0.4239000678062439,0.0696172788739204
7.38986181640625,0.9623512862220406,-0.4719140398994088,6.4379030502200125,0.5638875365257263,0.3520189225673675,-0.0075852833688259
7.409912841796875,0.889727364037931,0.2557254041284322,5.548476422694325,0.7968714833259583,0.67940753698349,0.1072568297386169
7.429962646484375,0.584844399639219,0.4842936290010809,5.786790088772773,0.8383429646492004,1.0347306728363037,0.2367971688508987
7.4500126953125,-0.1903120343776419,0.1943357004031538,6.289530936351418,0.6793455481529236,0.9978760480880736,0.1833064705133438
7.470062744140625,-0.7326188398756086,0.1675992307774722,4.833508536452055,0.7695645689964294,0.7293359637260437,-0.0268266946077346
7.49011279296875,-0.3087430008277297,0.4606733916997909,2.665809693071246,0.7910420298576355,0.5714448690414429,0.0466489605605602
7.510162841796875,-0.7526758317373693,0.4988764272354543,0.8331716563403606,0.3135939836502075,0.7213396430015564,0.1449963450431823
7.530212646484375,-0.9655704674642532,-0.4420584153398871,-1.1886597494691609,-0.4118138551712036,0.3085763156414032,0.0662435591220855
7.550263671875,-0.1406589091427624,-0.6648658847287297,-8.092214564323426,-0.1776381582021713,-0.6392611265182495,-0.1215023547410965
7.570313720703125,0.5250248678401113,0.2497644498974084,-14.199376424658295,0.3489664793014526,-0.6490925550460815,0.3091233968734741
7.59036376953125,0.2456863868035376,0.1439639420375227,-13.986098415637017,0.0257825255393981,-0.0737801194190979,0.7779440879821777
7.610413818359375,-0.0939483036331832,-0.7177591243959963,-12.978067035996911,-0.3896286487579345,-0.0035496270284056,0.9425702691078186
7.6304638671875,-1.8430407728016376,-0.90697105204463,-13.799824148875476,-0.4498047828674316,-0.5404277443885803,0.615397572517395
7.650513671875,-1.5827715877637267,-1.450098708938807,-12.987773606497049,-0.7058618068695068,-0.6670317649841309,0.2861106991767883
7.67056201171875,-1.3244004914321004,-0.9496876194819808,-12.151023507148029,-1.0685385465621948,-0.7104687690734863,0.2265297621488571
7.69061328125,0.500713871795684,0.3105357294633984,-9.922451969653368,-1.260866641998291,-0.9953484535217284,0.7248309850692749
7.7106630859375,-0.1613492304719984,1.0121503592662513,-6.317854529038072,-1.0872864723205566,-0.7167683839797974,0.85530686378479
7.73071337890625,-3.280375423365831,1.0819818742528555,-3.8740100093126295,-0.6300880312919617,0.339812159538269,0.3595898151397705
7.75076318359375,-3.376422891235352,1.0236403791170567,1.7576380330651995,-0.7660254836082458,1.4144645929336548,-0.6113919615745544
7.770813232421875,-1.11657884812057,-0.0648497810512781,6.481364590805769,-1.259560465812683,1.4598138332366943,-1.122270107269287
7.790863037109375,3.0359172631829976,0.3115522860947996,9.313018341550231,-1.3438829183578491,1.226144790649414,-0.5864109396934509
7.810913330078125,3.94348043590188,0.4603886930068954,5.128929406630992,0.0554292164742946,0.9861176013946532,-0.0380855612456798
7.830964111328125,2.594033035366237,-0.073374375225231,8.729936713799834,0.6281867027282715,1.0714870691299438,0.2518169581890106
7.85101416015625,-0.4641695632524788,-0.9448208902284504,13.915411014473438,0.4845534265041351,0.4506637454032898,-0.1986011415719986
7.871064208984375,-0.4466945872405544,-2.184032138544321,15.604758770644665,0.0186530072242021,0.3587174415588379,-0.4542935490608215
7.891114013671875,1.6904118782714008,-1.845611061681062,15.111307729458808,-0.4618914127349853,0.230242446064949,-0.2599116563796997
7.9111640625,1.707388732035458,-1.1845980529882012,12.133459793406724,-0.4369468986988067,0.0800821557641029,0.039777860045433
7.931214111328125,1.6327335962846874,-1.0227119391605255,9.8888583276093,-0.2917674779891968,0.0265930853784084,0.2777566313743591
7.95126416015625,1.1437956486091017,-1.3559504988193511,8.615326584279536,-0.1814033687114715,0.0437735170125961,0.3191682696342468
7.971315185546875,-0.1798460968775674,-1.4254308622807264,6.573954027175903,0.0286940112709999,0.2258639186620712,0.2153019607067108
7.991365234375,-0.2977481806153431,-1.0306699124276637,5.822972578266263,0.3272294402122497,0.7921523451805115,0.236571192741394
8.0114150390625,0.490198542195931,-0.8521092887833714,4.508842282566428,0.4900045990943908,1.0676769018173218,0.4666861295700073
8.031465087890625,-0.1544331674732267,-1.4948779079943897,4.527933936527371,0.417341411113739,0.4792454540729522,0.499463677406311
8.05151513671875,-0.7488179142002016,-2.374867137350142,3.26941154628098,0.3758682906627655,-0.4478641152381897,0.2795999646186828
8.071565185546875,-0.8762199399501085,-2.4874884311407803,-0.596276040366292,0.5653253793716431,-1.4576915502548218,-0.061565488576889
8.0916162109375,-0.3799646915310993,-2.1092196202747524,-5.716991160881519,0.9523558020591736,-2.2181527614593506,-0.2888022065162658
8.111666015625,-0.6444046229150145,-1.8518572625942529,-9.765986565700173,0.652420699596405,-2.2081477642059326,-0.2842274308204651
8.131716064453125,-0.8914277382150292,-2.664755215582252,-12.409963197147846,0.0383578240871429,-2.1394948959350586,-0.4512116312980652
8.15176611328125,-2.016233439671993,-1.6128642359495162,-19.84128224167824,0.7787373065948486,-2.1877551078796387,-0.9667941927909852
8.171816162109375,-2.309089866190404,-1.6736869534417986,-22.120365822792053,1.592485785484314,-1.7107535600662231,-0.771226704120636
8.1918662109375,-4.204346710050106,0.8240862864784896,-17.19714135957956,1.1596369743347168,-0.5086190104484558,-0.7884579300880432
8.211916259765625,-3.77620839125216,-0.0325195830717682,-10.031471147298811,-0.0949790105223655,0.6913153529167175,-0.6457687020301819
8.23196728515625,-2.0800047778368,-0.6821848299287259,-6.737717186921834,-0.858530580997467,1.2669916152954102,-0.5711598992347717
8.25201708984375,-0.5676162014625966,0.1693579110130667,-6.707086486336588,-0.7664902806282043,0.9561500549316406,-0.5106179118156433
8.27206689453125,0.7717698968511074,0.890239989735186,-4.963659349453449,-0.3274019956588745,0.4356063604354858,-0.4017137885093689
8.2921171875,0.7826420770645142,1.5407219598025084,-1.4868191047012804,0.0240090321749448,-0.0415706746280193,-0.2460553497076034
8.3121669921875,0.1518302914984524,1.54739120843336,1.9148153846800329,0.2075755894184112,-0.4195684492588043,-0.2781577110290527
8.33221728515625,-0.4257153294347226,1.0977505212709306,4.604002446207404,0.0332151092588901,-0.5745261311531067,-0.5299235582351685
8.352266845703125,0.1770438624057918,1.1400390725545584,6.139487089878321,-0.4539874196052551,-0.3067071139812469,-0.615613579750061
8.372318115234375,0.5917853048183024,1.1889271682336926,4.994178990879655,-0.3797965049743652,0.2747122049331665,-0.6041291356086731
8.3923681640625,1.4681122122742234,1.1272589398279786,4.611950774863362,0.1540306955575943,0.6513828039169312,-0.3394174575805664
8.412418212890625,2.602769884051382,1.1810372917667031,6.772143188136815,0.5311319231987,0.6479532718658447,0.0796893909573555
8.43246826171875,2.2306981742598118,0.8933091680474579,9.072211105090378,0.6426073908805847,0.5037025213241577,0.311484158039093
8.45251806640625,1.417368844117224,0.6054599021665752,9.8686420535326,0.683676540851593,0.2899395227432251,0.269731193780899
8.472568115234376,0.5792009138595312,1.145664072829485,9.713125913128255,0.7032719850540161,0.0747966095805168,0.1854424625635147
8.492618896484375,0.4848468059044331,1.5281442177802322,9.54803004347384,0.7163083553314209,-0.090479589998722,0.1546165198087692
8.512669189453124,0.557719296022132,1.5862874869301915,9.344951941427588,0.6681263446807861,-0.2604137361049652,0.0963237285614013
8.532718994140625,0.7478399360135197,1.1454298256821929,8.768149247816204,0.3888925015926361,-0.5241638422012329,0.030895484611392
8.552769287109374,0.6732444945607334,0.1967234723225235,7.555417133364081,-0.1491041928529739,-0.42775559425354,-0.0900015607476234
8.572819091796875,0.2029856014572083,-1.238732378757745,5.3067883117467165,-0.0239176228642463,0.4540911018848419,-0.0353287756443023
8.592869140625,-0.6370942999016493,-0.3897314312532544,0.44847792699337,0.6234732866287231,0.1700625121593475,0.0184989962726831
8.612919189453125,-0.7502769539020955,0.5435469052195548,-0.4631973572194576,0.8547938466072083,-0.0603322237730026,0.0638018548488617
8.63297021484375,0.3680186350084841,-0.068477323898673,-1.601198932597041,0.4362633526325226,-0.471384048461914,0.1498707681894302
8.65302001953125,0.7213100948758423,-0.845123667679727,-3.0621266401946543,-0.1304302513599395,-0.6314918994903564,0.3560304045677185
8.6730703125,-0.3366436919271945,-0.9074307785108684,-6.402756333515048,-0.5096719861030579,-1.0157355070114136,0.4687123894691467
8.6931201171875,-1.3523650415480135,-1.1620106658659874,-11.76999823718071,-0.7112388014793396,-1.4886319637298584,0.3660553097724914
8.71317041015625,-3.370657167315483,0.0437722139701247,-15.079364777231216,-0.3956904411315918,-0.9826947450637816,0.3219588100910187
8.73322021484375,-3.7032185583651054,0.0607145809426903,-13.802691813266277,-0.4133783876895904,0.0836901664733886,0.2785309553146362
8.753271484375,-2.900096003329754,-1.2479279309958218,-9.928790525025128,-1.004151463508606,0.7948762774467468,-0.1072198897600174
8.773321044921875,-2.200539767361432,-1.7198257504127918,-6.092357674434781,-1.6218253374099731,1.0485060214996338,-0.4744042754173279
8.793371337890624,-0.6246861422926188,-0.7848457245886326,-4.019697998663783,-1.575656533241272,0.1940161734819412,-0.6655044555664062
8.813421142578125,1.3404831728354096,0.401030239380896,-2.1200854438126084,-1.0043052434921265,-0.9159039855003356,-0.2999672293663025
8.833471435546874,0.8284753152176737,0.9018520285304636,-0.0589782586693763,-0.6956886649131775,-1.4400500059127808,-0.0972924977540969
8.85352099609375,-0.4692793074816465,0.0549247454948723,-0.4095703964501619,-1.065229415893555,-1.0858241319656372,-0.2943776249885559
8.873572021484375,-0.3801657305285334,-0.1304033264577388,-0.3604559446692466,-1.0292342901229858,-0.0314720645546913,-0.2834141552448272
8.893622314453125,0.7360358087122439,-0.323221827230975,0.6142693776965141,-0.712011456489563,0.8259128332138062,-0.1515535414218902
8.913672119140625,1.5916586585745214,-0.9828650819405912,3.8949633654922247,-0.5632112622261047,1.171525955200195,-0.091443158686161
8.933722412109375,2.0560146843098104,-1.5504690084435044,5.422852731728553,-0.3472964167594909,1.0899081230163574,-0.1809175312519073
8.953772216796875,2.0879604130163787,-1.1781893549896776,6.11457125980854,0.0866684019565582,1.14900004863739,0.0545540191233158
8.973822265625,1.7530818310655651,-1.1808964219912883,8.067669321131707,0.1835567355155944,1.1233850717544556,0.353140652179718
8.993872314453125,1.03917901677154,-1.8476985354796047,9.263356192758678,-0.06021623685956,0.8112752437591553,0.2897847294807434
9.01392333984375,0.1179460690099745,-1.7573891728706657,8.088017112633585,-0.0729376226663589,0.8964670896530151,0.1206758767366409
9.03397314453125,-0.1279210446553304,-0.9416996894679964,6.853525586315989,0.0863403975963592,1.1589404344558716,0.2984012067317962
9.0540234375,0.6592807780727744,0.0625420520981773,4.899828390055895,0.7333798408508301,1.0145615339279177,0.3570809066295624
9.0740732421875,0.4746632290096953,-0.2046228472702205,3.3569419456958767,0.8050742149353027,0.7147743105888367,0.519891083240509
9.094123291015626,-1.3305574066266417,-0.4961856537815183,3.912586115944385,0.6943833827972412,0.3794032633304596,0.290578544139862
9.114173095703125,-1.0549354618951678,-0.7515076647408306,1.742880024394393,0.7048543691635132,-0.2313807308673858,-0.0141671942546963
