timestamp,acc_x,acc_y,acc_z,gyro_x,gyro_y,gyro_z
0.0936220703125,-0.2363234421093016,-0.1486142520613968,7.834045274174213,0.0323101542890071,0.1038294956088066,-0.6099382638931274
0.1136728515625,0.3430697794519364,-0.2123119404681026,8.393010697799921,0.326624721288681,-0.3349924385547638,-0.5413056015968323
0.133723876953125,0.2058769755171611,-0.1393665312446654,8.897508033657074,0.3743833303451538,-0.5439417958259583,-0.5954557657241821
0.153774169921875,0.1030726172659546,-0.2874816016122699,9.21536869918108,0.1454517692327499,-0.3666977286338806,-0.7122174501419067
0.173824951171875,0.4715825794553384,-0.4856218088649213,9.201160725608467,-0.1048871949315071,-0.0207347907125949,-0.7372700572013855
0.193875732421875,0.7842727470062673,-0.3220373666867613,8.843679997357725,-0.1339494436979293,0.1782703697681427,-0.5834696888923645
0.21392578125,1.6655875258773565,-0.1231733021389692,7.326182261276244,0.2613530457019806,-0.0797861218452453,-0.4027097821235657
0.233976806640625,1.2914008697584272,0.1988575617417693,5.984354395833611,0.5301897525787354,-0.193490520119667,-0.3289633989334106
0.25402685546875,1.0558848715744913,0.904664236406982,5.677335442319512,0.5338631868362427,0.2030162066221237,-0.1911047101020813
0.274077880859375,0.7464660903770476,1.1783009986706077,4.034456591856479,0.7426442503929138,0.7055559158325195,-0.0217054653912782
0.29412890625,0.617483079046011,1.4360840659812093,2.2619378005236386,1.0537753105163574,0.8249666094779968,0.3268886804580688
0.3141787109375,-0.0486854492465034,1.6714865207880734,1.15065296715796,1.1742970943450928,0.7506997585296631,0.4951179623603821
0.33422998046875,-0.7294529231905936,2.2275701053671537,0.3043330754309892,1.20074200630188,0.8243530988693237,0.8875624537467957
0.354281005859375,-0.360764864487946,1.7998440206319093,-1.1330442452311515,0.9634186625480652,0.2561714947223663,1.2543704509735107
0.374330810546875,-2.34407978489846,1.5948308588698503,-2.438081133893132,0.4875096082687378,-0.2505764067173004,0.9850749373435974
0.394382080078125,-4.148229686030745,0.4322833096481859,-5.466081048080325,-0.0999541133642196,-0.3839527666568756,0.3793226480484009
0.414431640625,-2.6640985052391883,0.1101544652856886,-8.07756235411465,-0.8466127514839172,-0.8834375143051147,0.1917635798454284
0.434482177734375,-2.295100357674062,-0.3552607141137123,-16.0728883235693,-0.7326792478561401,-1.4314680099487305,-0.2206375747919082
0.454533203125,-2.442001376076788,0.0452412636093795,-17.874454930210113,-1.0692185163497925,0.0893959030508995,-0.2852311134338379
0.4745830078125,-1.7980619595207272,-0.2770743354968726,-15.8340900888443,-1.1159931421279907,0.2674199938774109,-0.4318887293338775
0.49463427734375,-0.9455072650574148,-1.4814613770604133,-11.300924096882342,-1.1900153160095217,-0.4221495687961578,-0.6346896290779114
0.514685302734375,0.5362274490516632,-0.9011407384559512,-7.33823802525103,-1.1362701654434204,-1.0797311067581177,-0.8181044459342957
0.534735107421875,0.8006888250824064,-0.3317013401541859,-4.773702594786882,-1.004414200782776,-1.5077693462371826,-0.8073053956031799
0.5547861328125,2.5585467114433644,0.8284867864597588,1.0878741471618414,-1.6920276880264282,-0.6939086318016052,-0.1423789858818054
0.574836181640625,2.2002210568010807,-0.0030450667843222,-0.092258012458682,-1.4529998302459717,-0.6627848148345947,0.1408628672361374
0.59488720703125,0.8574526956379414,-2.306789626424014,-0.2877700631648301,-1.7163077592849731,0.0665386989712715,-0.0441580340266227
0.614938232421875,-1.948155198093504,-5.181017905786633,2.905923686569929,-2.176131248474121,1.0731016397476196,-0.9487801790237428
0.63498828125,-0.9464145891606808,-4.386001500317454,-0.642488925486803,-0.3904279172420501,1.4045374393463137,-1.5484156608581543
0.655039306640625,5.360071573644876,-2.528831079876422,0.2272293774843216,0.9555630683898926,0.6916278004646301,-0.6395111083984375
0.675090087890625,6.255476691058278,-1.4746566654816269,7.455148832929134,0.9690954685211182,0.307700365781784,-0.0246674492955207
0.69514013671875,4.52587554269284,-1.8229631765432652,9.787704476511475,0.7227879166603088,0.2355376631021499,0.1430292278528213
0.71519091796875,2.1327374201148745,-1.367931443992257,10.752788694828748,0.444192111492157,0.3958883583545685,-0.0646851137280464
0.735241943359375,2.111111133109778,-0.8454004387944937,9.734625797274708,0.5586220026016235,0.4613370895385742,0.0103362500667572
0.755292236328125,2.14332559575513,-0.3297353373108431,8.684868322539328,0.8479740023612976,0.1503947675228119,0.2237855941057205
0.775343017578125,1.890403704740107,-0.2888175629237666,9.740050160411,0.8119391798973083,-0.2243313491344452,0.3327852487564087
0.795393310546875,1.280118574374169,-0.0415805491447448,10.028167429578303,0.5795099139213562,-0.0692818686366081,0.4375481605529785
0.8154443359375,1.1811746544107795,0.770578933500871,8.65206086243689,0.4990049600601196,0.4437620043754577,0.6830870509147644
0.8354951171875,0.2245132503934204,0.8389994857110082,7.033380049163103,0.7309179902076721,0.3593215644359588,0.7424454092979431
0.85554541015625,-0.2270878318554721,0.8288972669567912,5.959058626535534,0.7380139827728271,0.309113085269928,0.8171786069869995
0.87559619140625,-0.5879527043854818,0.8057305455766618,5.067933378398418,0.4729015529155731,0.5141600966453552,0.90714430809021
0.895647216796875,-1.656494118839502,0.994769016354531,1.9412632466226816,0.3622263073921203,0.4697626829147339,1.0084550380706787
0.915697265625,-2.100432356576621,1.111309529415518,-1.767245819365978,0.1883529871702194,-0.1211337447166442,1.0481775999069214
0.935748046875,-1.710394197461754,1.966981186855584,-5.336455135735869,-0.1186097040772438,-0.9997650980949402,1.245854735374451
0.955799072265625,-2.1011508801095187,1.9547462669216096,-9.131202807763218,-0.4746572077274322,-1.4698426723480225,1.297482132911682
0.97584912109375,-3.937591962385177,1.7805160736970602,-14.230856435549258,-0.3341832756996155,-1.0226874351501465,0.8225909471511841
0.995900146484375,-4.240067134989798,2.3549033767297862,-16.011885281074047,-0.0382742099463939,-0.1291232407093048,0.5263496041297913
1.015951171875,-3.4468376129373905,2.1572087212875486,-12.60570554947853,-0.099242553114891,0.239143505692482,0.3294113874435425
1.036001220703125,-3.314151143978536,0.3296433116458356,-8.805534098836779,-0.5743984580039978,-0.1012727171182632,-0.0385046042501926
1.05605224609375,-2.3828077210910616,-0.7445609143428504,-7.234158057573437,-1.162238836288452,-0.6871802806854248,-0.4094717502593994
1.07610205078125,-0.0705954120311886,-0.2018781516719609,-8.494906891697644,-1.403666615486145,-0.8091014623641968,-0.3541611731052398
1.0961533203125,1.132020601271838,-0.0604452259493991,-9.826028069686888,-1.2705342769622805,-0.6052745580673218,-0.2771778702735901
1.116204345703125,1.414752816399932,-0.0910825754711404,-8.037361861151457,-1.0740960836410522,-0.2533311545848846,-0.1485154628753662
1.136254150390625,2.069027602878958,-0.3219191106019541,-4.341631028193235,-0.8843665719032288,-0.3682843446731567,-0.0690645575523376
1.156305419921875,1.7924042260199784,-0.9333265595287084,-0.3671452131748199,-1.0127711296081543,-0.5162482261657715,-0.1069562137126922
1.1763564453125,2.2424539323747155,-0.9072706195130944,2.112726897743344,-1.130480408668518,-0.32793128490448,-0.0961220934987068
1.196406005859375,2.206340270333737,-1.2096356097415089,3.0931372800081967,-1.0321046113967896,0.4066978693008423,-0.0679047778248786
1.216457275390625,1.2858736307695506,-2.21045165117532,3.888768017983436,-0.8574144244194031,1.372545838356018,-0.3821022808551788
1.236508056640625,0.0059439665636047,-2.921845186062157,6.539985706600547,-0.7037878632545471,1.6492153406143188,-0.8542336225509644
1.25655810546875,2.010599525438249,-2.196769455042481,5.990441606792807,-0.2380896061658859,1.0376063585281372,-0.5956530570983887
1.276609130859375,2.793385102626681,-1.6657209429986777,8.971883767944574,-0.244781494140625,0.6563736200332642,-0.2217777967453003
1.29666015625,1.6296682173646986,-1.8262571035221216,9.63012614288032,-0.1853785961866378,0.5757079720497131,-0.0600935369729995
1.316710205078125,0.9797251034144312,-1.857342562137544,9.391091761311888,-0.0960850268602371,0.5610169768333435,-0.0665827840566635
1.336760986328125,0.5695519187655299,-1.893682580280304,9.407878645461798,-0.064571127295494,0.6547238230705261,-0.0505177080631256
1.356812255859375,0.4005964145408943,-2.0850917257122696,9.138332221251726,-0.0602363012731075,0.3911941647529602,-0.0388272255659103
1.3768623046875,0.3385366660669446,-2.261635748837143,8.714210736879705,-0.0911177694797515,0.0915696546435356,0.1410977989435196
1.3969130859375,1.228374797002971,-1.769189354649186,5.898493390935659,0.2432181239128112,-0.0052228174172341,0.5024315118789673
1.41696435546875,1.4242501280635596,-1.543453868984431,4.4224061081290245,0.4915801286697387,0.1563847661018371,0.8456478714942932
1.437013427734375,-0.1491128857659175,-1.6824087506882843,3.4039299068421123,0.8130780458450317,0.3350201249122619,0.9042783379554749
1.457064697265625,-1.630373004633188,-1.6347725547663867,2.4817922653257845,0.950354814529419,0.5348413586616516,0.7975072264671326
1.47711572265625,-1.739707239577174,-1.0178904372882098,0.5614098941683769,1.135348200798035,0.753403902053833,0.8116008639335632
1.49716552734375,-1.7884172022104263,-0.2737679508952423,-1.640750021740794,1.0725587606430054,0.8200898170471191,0.8661628365516663
1.517216796875,-2.060264304578304,0.2391775528987869,-2.3473253426909446,0.6564295291900635,0.5058896541595459,0.8003252744674683
1.537267822265625,-2.0881828235954045,1.160280042681098,-6.106521224343776,0.4486934840679168,-0.54916912317276,0.7569652199745178
1.557317626953125,-0.9432128705099224,2.334782379721105,-10.634756189644335,0.2088284939527511,-1.581935167312622,0.8584946990013123
1.577368896484375,-0.3368762951066717,2.3856204404242334,-14.90410407191515,0.1012929305434227,-1.949492335319519,0.8489723801612854
1.597419677734375,-0.8275313123658299,3.2601445362418886,-18.79060063783526,0.2733015418052673,-1.230786919593811,0.767430305480957
1.617469482421875,-1.0257654815122486,3.490789275127649,-18.03751666368842,0.2347067892551422,-0.4611731171607971,0.6814797520637512
1.637520751953125,-2.165960913672298,2.216035442657024,-14.02799811373353,-0.0101666841655969,-0.6349911689758301,0.2653914093971252
1.657571533203125,-3.1738585839301345,0.8165934465050697,-10.74681605015993,-0.2538366615772247,-0.8144806623458862,-0.3405694961547851
1.67762158203125,-2.204058150745928,0.2776368647504598,-8.675584361365438,-0.3477970063686371,-0.399810254573822,-0.8750143051147461
1.69767236328125,-0.2307574785452336,0.0778715405140072,-5.950111349970102,-0.2800899147987366,0.1459407359361648,-1.1329854726791382
1.7177236328125,2.524166887457669,0.0285719414245337,-2.678952083238959,-0.1799270063638687,0.3914077579975128,-1.0379410982131958
1.737773681640625,3.334599180984497,-0.6431196976710111,1.5258949775487185,-0.1954833418130874,0.1760008782148361,-0.9329758286476136
1.757824462890625,2.755497562780976,-1.127219996057078,4.058279365992546,-0.1255054324865341,-0.0560006871819496,-0.9565322399139404
1.777875732421875,2.183661990057677,-1.0339845168683677,6.277434255844354,-0.2032216340303421,0.120187260210514,-0.9340018033981324
1.797925537109375,2.828145742623508,-0.3657591291112825,7.519259778311848,-0.2463340908288955,0.6097383499145508,-0.6302376985549927
1.8179765625,2.5305893217206,-0.6122181077225134,7.9013769351691,-0.0105582755059003,0.7080375552177429,-0.4529277682304382
1.83802783203125,1.5089726304508744,-0.867960645648837,9.14235431637466,0.2308407872915268,0.7765381932258606,-0.3822490572929382
1.85807763671875,0.9791534410063176,-0.8937661910999566,10.31340475939512,0.3394367098808288,0.7862497568130493,-0.2984943687915802
1.878128662109375,1.449641174429655,-0.9702321756649762,11.18817099340558,0.3376629650592804,0.5448575019836426,-0.1228931918740272
1.898179931640625,1.4201403546571731,-1.0808942982118577,10.901230366802215,0.3287875354290008,0.2002772390842437,0.0574642531573772
1.9182294921875,1.233457945486158,-1.0758069119449705,10.245170012080669,0.3269630968570709,-0.0665992349386215,0.2423772811889648
1.938280517578125,0.5759024203034118,-0.9692802817676216,9.436902495372294,0.2955890893936157,-0.0059947590343654,0.2866220772266388
1.95833154296875,-0.3868715117774903,-0.900293327846378,8.161271733936667,0.340953916311264,0.3359061181545257,0.1723772436380386
1.978381591796875,-0.6824520294975489,-0.507455710738711,7.022441891041398,0.4934714734554291,0.7173352837562561,0.0868954584002494
1.9984326171875,-0.4478678322710097,-0.2177579674469306,6.039637891638279,0.6366567015647888,0.8202797770500183,0.1280004680156707
2.018483642578125,-0.0335810748234391,0.3420956737227738,4.868594462880492,0.7963442206382751,0.9579628109931946,0.2993460595607757
2.03853369140625,-0.6598297902576625,0.4346353526670485,3.290287745571136,0.9765524864196776,1.1300443410873413,0.3879934549331665
2.05858447265625,-1.5521972935408352,0.3744620389942079,1.9329729726612568,1.0047221183776855,1.2837255001068115,0.3963854610919952
2.0786357421875,-2.596979902473092,0.0891661839231848,0.2871341033488512,0.8170579671859741,1.252344846725464,0.2370705306529998
2.098685791015625,-4.028421987867355,-0.8737089800424873,0.1415899063825607,0.0097064170986413,0.8680679798126221,-0.3642966151237488
2.118736572265625,-3.327774887922406,-2.4789701936423776,-1.1944476852208374,-1.067525863647461,-0.9112207889556884,-1.1577686071395874
2.138787841796875,2.382630026436597,-1.2277511121466755,-12.35408056640625,-1.1867114305496216,-2.598921060562134,-0.7858186960220337
2.15883740234375,6.294910291302204,3.340946504184604,-23.90853284963369,-0.160999059677124,-1.7657592296600342,0.4366302490234375
2.178888427734375,1.510024623721838,4.256881491668522,-24.41917351055145,0.4236726760864258,0.098074272274971,0.7257949709892273
2.198938720703125,-3.7186756552159785,1.1626075357805936,-14.859263059669733,-0.029912881553173,0.6981420516967773,0.0608477629721164
2.218989501953125,-3.557893264846504,-0.1299476916447281,-9.173056328630446,-0.4309433996677398,0.0042195790447294,-0.512104868888855
2.23904052734375,-0.7591786377601325,0.2261165939368307,-7.571274627709388,-0.4807048141956329,-1.0577905178070068,-0.5861046314239502
2.259090576171875,1.5473574522942304,1.4280349072992802,-7.540246452239155,-0.229868397116661,-1.5327434539794922,-0.3456847667694092
2.2791416015625,0.6052100190587342,0.9716633044466376,-4.432460469153523,-0.3823801279067993,-1.22978937625885,-0.5470448732376099
2.299192626953125,-0.7963318719819188,0.6388203199766576,-1.0774223112523555,-0.6639586687088013,-0.2658097147941589,-0.9696229100227356
2.31924267578125,-1.1051091404054314,0.4763920986289158,1.1722463748067615,-0.7340379953384399,0.4315984547138214,-1.4503536224365234
2.339293701171875,0.6931272258341312,0.7525752939723431,3.155830759808421,-0.6689621806144714,0.5894374251365662,-1.4451422691345217
2.3593447265625,3.485673831810057,1.5225924288719892,4.88042167879641,-0.5358505249023438,0.4841760396957397,-0.8430038094520569
2.379394775390625,3.6026600428119298,0.970760948779434,6.969245138382911,-0.4577623307704925,0.1087780743837356,-0.3349598050117492
2.39944580078125,1.913003220691532,-0.0420244204547256,9.050342972153423,-0.5924531817436218,-0.0903147011995315,-0.1229156553745269
2.41949658203125,0.852485867010802,-0.7673661089342088,10.436028099501131,-0.8027650117874146,0.2055118083953857,-0.131652757525444
2.4395478515625,0.8118176104053855,-0.944567865315452,9.629687751463056,-0.6982833743095398,0.6710139513015747,-0.0369145534932613
2.45959912109375,0.2208946215048432,-1.3593570923924445,10.39444287418127,-0.6768964529037476,0.6964526176452637,-0.0185929797589778
2.479650146484375,-0.1539193727321922,-2.457987903629243,11.349013881790638,-0.8295924067497253,0.2577911019325256,-0.0252045262604951
2.499699951171875,0.1878049103949219,-2.753711263886094,10.229282707118989,-0.7622162699699402,-0.1046660095453262,0.1255028694868087
2.519751220703125,0.3357485697183758,-2.612832720643282,7.970126646268367,-0.4570342004299164,-0.153336688876152,0.2659802138805389
2.539802001953125,-0.0356607306417077,-3.0819647286087277,7.502865692871809,-0.3453590273857116,-0.2728634476661682,0.2789852917194366
2.55985205078125,-0.1031512354601174,-3.257648043251037,7.009299500873684,-0.2698209881782532,-0.267002671957016,0.3448373079299927
2.579903076171875,-0.6694521896056831,-3.0122026255965237,3.7595325662612913,0.23146852850914,-0.0474444516003131,0.2931853532791137
2.5999541015625,-0.8675838482256978,-2.8114102963998917,2.257821597376465,0.5160073637962341,0.5285770893096924,0.2048418968915939
2.620004150390625,0.2076717865120619,-2.516708972667157,1.2663549835681915,0.5788586735725403,1.0127121210098269,0.3210130631923675
2.640054931640625,1.6132378915674983,-2.1323697558462618,-1.2732277919471262,0.8475388884544373,0.8345218896865845,0.6028668880462646
2.660106201171875,1.279955346636474,-1.8996834281302988,-3.604953998968005,1.068392634391785,-0.0644227489829063,0.6978351473808289
2.680156005859375,0.3565370907250791,-1.7144672921195625,-4.807950316825509,0.6930431723594666,-1.0511207580566406,0.4348848760128021
2.700206787109375,2.280335334740579,-0.947384384040907,-11.415703153228758,0.4861968159675598,-2.2086570262908936,0.4673962295055389
2.720258056640625,4.065384814083576,1.365128369270265,-20.352465338909624,0.9730909466743468,-1.7072131633758545,0.7958889007568359
2.740307861328125,0.6503992602199316,3.4827465461865064,-23.91859831657409,1.7109055519104004,-0.201090469956398,0.85226970911026
2.76035888671875,-3.4986417421936986,2.815159712061286,-18.385441628086564,1.7345508337020874,0.4049143195152282,0.3500133454799652
2.78041015625,-4.589280385632812,2.151086146754026,-11.38390282434225,1.2465472221374512,0.3754812479019165,-0.2300211489200592
2.8004599609375,-3.394675171762705,1.7825640922680497,-6.7505977112829685,0.5754772424697876,0.2739591300487518,-0.6204187273979187
2.820510986328125,-1.8956641094863411,1.5818889597103,-5.224942972230911,0.1368770152330398,0.2431454360485077,-0.8603943586349487
2.840562255859375,-0.897522840219736,1.9222683310344812,-4.6061803747683765,-0.1034284085035324,0.5697618126869202,-1.013761043548584
2.860612060546875,-0.7764058130234479,2.153104500839114,-1.2313900531709194,-0.4265224933624267,0.9415687322616576,-1.1998580694198608
2.8806630859375,-0.4964103293828666,1.8648459235049784,2.4308891765624283,-0.686369001865387,0.6627853512763977,-1.3980717658996582
2.90071435546875,0.1363242409393191,1.4827473252177237,4.277043112948537,-0.6887170076370239,-0.44962078332901,-1.4792344570159912
2.920763916015625,1.7112433616369962,2.3287413459911943,4.959212891438603,-0.6839306354522705,-0.9523578882217408,-0.8399407863616943
2.94081494140625,2.6511384859010576,2.632005623146892,4.913599141255021,-0.5150214433670044,-0.7835693359375,-0.162055417895317
2.960864990234375,0.2492249361932277,1.5667356681115925,5.792422541701793,-0.3369635641574859,-0.5080684423446655,-0.1031436696648597
2.980916015625,-1.4698162397131322,0.5870159349920228,7.959721572110056,-0.41622194647789,-0.0474366173148155,-0.2245496064424514
3.000966796875,-1.924760293980688,-0.2222582562745548,9.300531200420856,-0.4540043175220489,0.3403570055961609,-0.4938796758651733
3.02101806640625,-2.3991934770941734,-0.6434536058004945,9.455068851181863,-0.2391270250082016,0.1739291250705719,-0.6771115064620972
3.041068115234375,-1.3206298868522046,-0.5712299349803477,11.061654737514257,-0.3126111626625061,-0.0602862723171711,-0.575314462184906
3.061118896484375,-0.8492373866088688,-0.7798872253984213,11.337674157130715,-0.4740674197673797,-0.2880625426769256,-0.4571085572242737
3.081169189453125,-0.8745069985523819,-0.9593423136644064,10.294585492634774,-0.4566486179828644,-0.3471083641052246,-0.5099484324455261
3.10122021484375,-0.2295193515850231,-0.927046602476388,8.869105530515313,-0.4056406915187835,-0.1319324672222137,-0.5440050959587097
3.12127099609375,0.7085173949286341,-0.7755173397511244,8.34698427516222,-0.5104652643203735,0.1866116970777511,-0.458544373512268
3.1413212890625,1.9069228778645395,-0.3941455579010769,6.136313720539212,-0.3162306249141693,0.3183839917182922,-0.0778728127479553
3.1613720703125,1.8666395289234816,-0.64177668556422,3.6411265515893696,0.0949773117899894,0.371579647064209,0.196160539984703
3.181423095703125,0.5178884035563096,-1.2863424173250793,2.5198528236508366,0.301515132188797,0.7134119272232056,0.2486569434404373
3.20147314453125,-0.3141385762609541,-1.506892024784535,1.2198135971456765,0.3996966183185577,0.7988710403442383,0.272590696811676
3.22152392578125,-0.2461086308035999,-1.423683726352453,-2.090099470871687,0.5995204448699951,0.241307184100151,0.3518633842468261
3.241574951171875,-0.5846387940645218,-1.627345327375084,-3.766167474231124,0.3591488003730774,-0.2150362432003021,0.3529481887817383
3.261625,-2.380444791352004,-2.102363616900146,-5.559386523765325,-0.278879702091217,-0.9824452996253968,-0.1012774258852005
3.281676025390625,-1.9328093065321443,-1.620344947093725,-10.859677874708176,-0.860837459564209,-2.390172004699707,-0.4206386804580688
3.30172705078125,0.2260069778162054,1.189198970912397,-20.964508857250213,-0.148717001080513,-2.296091079711914,0.0032507944852113
3.321777099609375,-0.3332820334743708,3.400475966995954,-26.47993115160465,0.923504114151001,-1.0204919576644895,0.4703060984611511
3.341828125,-1.7651242971673606,2.044533797613531,-19.61486184248924,0.9492420554161072,-0.4800246655941009,0.3774309754371643
3.361879150390625,-2.6531729143381115,0.3624048137146979,-13.3398638738811,0.7091776132583618,-0.4799959063529968,-0.0801097899675369
3.38192919921875,-1.9182665480472143,-0.6451560988694429,-9.162689832916856,0.4237518012523651,-0.3264709711074829,-0.505533754825592
3.401980224609375,0.8348312601156532,-0.3133662036489695,-6.898019392558932,0.4133305251598358,0.0353834144771099,-0.6081380844116211
3.422031005859375,2.537631056925654,0.2939655568040907,-4.5713457927525045,0.6132580637931824,0.3570318222045898,-0.6496110558509827
3.442080322265625,3.330653073707223,0.8747766092739999,-1.599259488967061,0.8824856281280518,0.3977178633213043,-0.4928175210952759
3.462131103515625,3.3730116214871404,0.9769634566813706,2.6027713453561065,0.953984558582306,0.0913116633892059,-0.2741856276988983
3.48218212890625,2.4588217241048813,0.9906301629841328,5.8273518162637945,0.8779387474060059,0.0673360079526901,-0.1893390417098999
3.502232421875,0.6683133948341011,1.1735528542954474,7.11410252212882,0.9055257439613342,0.4928840398788452,-0.3600220084190368
3.522283203125,-0.4996648741994053,1.2976213517084716,8.239954810029268,0.8781309127807617,0.8390498161315918,-0.5882408618927002
3.54233349609375,0.1368625855997204,1.985744777905941,9.464733336105942,0.8320712447166443,1.2027482986450195,-0.4851852655410766
3.56238427734375,0.5415790392126888,2.4242908012107014,9.690225514534117,0.941176414489746,0.941248893737793,-0.3871558904647827
3.582435302734375,0.1709852199539542,2.400521510827541,10.828497139024734,0.8421948552131653,0.4597262442111969,-0.3090116381645202
3.602485595703125,-0.1340443133085966,2.51343126617074,10.87350766261816,0.6560847759246826,0.4170315563678741,-0.247136116027832
3.622536376953125,-0.551508385618031,2.696127382184565,10.247097765272857,0.5116711258888245,0.6761794090270996,-0.2804771065711975
3.64258740234375,-0.760456256480515,2.72337516233325,9.754790048903226,0.3918931186199188,0.7641547322273254,-0.3080565333366394
3.66263720703125,-0.0161141725201159,2.927942918415368,8.19284351476431,0.4944179058074951,0.8715328574180603,-0.1040964946150779
3.682688232421875,0.5524495389256626,2.7412188620597124,7.439404735830426,0.4963822066783905,0.6707841753959656,0.1832955926656723
3.7027392578125,0.5089624255072325,2.227305755342543,6.858229818484187,0.3627722263336181,0.5969327092170715,0.4337166249752044
3.722789306640625,0.3823298497598618,1.7335633299946784,4.761030160218477,0.4227064549922943,0.6128602027893066,0.6559742093086243
3.74284033203125,0.7880493429355323,1.4252932073757052,1.5975936015814542,0.7424253225326538,0.699026346206665,0.9554072618484496
3.762891357421875,0.7882685386441648,0.688269264408946,1.0089689527511596,0.7116532325744629,0.8509776592254639,1.1865123510360718
3.782941162109375,0.4704376837365329,-1.2949416111052034,1.888406101182103,0.2084656208753585,0.4969346225261688,1.217839598655701
3.802992431640625,-0.4498810717895626,-2.1295669733852147,-1.021896238863468,0.0439044907689094,-0.8438881635665894,1.075408935546875
3.823042236328125,-0.6415236606512218,-1.5498165358841418,-3.744083652716875,-0.6265068054199219,-2.441091299057007,0.8537847995758057
3.84309326171875,-0.9095059773497284,-1.4024018688708544,-9.691050859442353,-1.1890900135040283,-2.0023717880249023,0.4621537625789642
3.86314453125,-1.008815881081298,-0.3184063167080283,-16.127483837109803,-0.9451402425765992,0.0355599075555801,0.4377675652503967
3.883194091796875,0.4048145071599632,-0.2307261335588991,-17.495148154598475,-0.3717935383319855,0.1737300604581833,0.5253649353981018
3.9032451171875,0.0274978824522346,-1.3496353243231771,-12.563673749434948,-0.4620451927185058,-0.7531793713569641,0.4425765573978424
3.923296142578125,-1.701328993605077,-2.525795949964225,-9.521720713219048,-0.9290739893913268,-0.943325936794281,-0.0216682143509387
3.94334619140625,-2.4824746946319936,-2.4434454374052583,-9.47469709623754,-1.2678515911102295,-0.2054334580898285,-0.3309879302978515
3.963397216796875,-0.9779927997291088,-1.880460256744176,-9.192175455120204,-1.114534616470337,0.1929582357406616,-0.5041695833206177
3.9834482421875,-0.8003631002593785,-1.6461432590864598,-6.427842843976617,-0.8393128514289856,0.1235624179244041,-0.7328200936317444
4.003498291015625,0.1322645172197371,-1.0387753313414751,-1.3910159669816493,-0.8412203192710876,-0.2727966010570526,-0.7036653161048889
4.023549072265625,1.090875009478256,-0.1487796717561781,2.1106272951155898,-0.8286623954772949,-0.490610271692276,-0.4451896250247955
4.043600341796875,0.6635797173757105,0.170989311607182,3.552476792755723,-0.717312753200531,-0.3039190471172333,-0.3561107814311981
4.063650390625,-0.2435263226928189,-0.0796830469153821,6.20948066355884,-0.8052784204483032,0.0061955000273883,-0.3844616711139679
4.083701171875,-0.2487369700131937,-0.2022087718658149,7.664226467651129,-0.7978039979934692,0.0909796506166458,-0.4441854357719421
4.10375146484375,0.5327827154252678,-0.1726155976347625,7.518732539567351,-0.571485161781311,0.0382541306316852,-0.3397915661334991
4.12380224609375,1.1237705862555651,-0.15022621730268,7.129912085679173,-0.0551778934895992,-0.0612631998956203,-0.1372234523296356
4.143853271484375,1.1505972914479672,-0.3794531983450055,7.67580526176393,0.3136350214481354,-0.0413830950856208,-0.0026175589300692
4.1639033203125,0.9883449015911668,-0.6238375626392663,10.02118122395277,0.1661120951175689,0.225692868232727,0.0388290584087371
4.1839541015625,0.5768142379187047,-0.7809105040315538,10.38567855296731,-0.1002633422613143,0.3517559468746185,0.01440723054111
4.204005126953125,1.502451704249531,-0.2903611756365746,8.808333374166487,-0.1066308543086052,0.4123061597347259,0.2361414134502411
4.22405517578125,1.7855362399466337,-0.1733438388440757,6.486382711228728,0.1725578606128692,0.1893708556890487,0.4587085545063019
4.244106201171875,1.078637532261014,-0.3501229128338396,5.410432810616493,0.3334357440471649,0.1499224454164505,0.6182370781898499
4.2641572265625,-0.0535809753362555,-0.6959692443270236,4.7719893611282105,0.3375186622142792,0.3450764119625091,0.5227055549621582
4.284207275390625,-0.8964102028027177,-0.4835024055581539,1.941580057486892,0.5547353625297546,0.7819637656211853,0.4127953946590423
4.30425830078125,-0.2034474102826789,-0.3041551615808159,1.4917980621576308,0.612337589263916,0.9872139096260072,0.4781861007213592
4.324309326171875,-0.0085590444328263,-0.7773875906024128,0.9656979663014412,0.567668080329895,0.8631635308265686,0.4939995408058166
4.344359375,-0.2874432423632592,-1.5518421964928506,-0.2578887196421623,0.3213828206062317,0.425988107919693,0.3463287651538849
4.364410400390625,0.8082511500954628,-1.3692735062509775,-2.775547832641005,0.0210646092891693,-0.3793816268444061,0.3607664704322815
4.384460205078125,1.5569361586309969,-0.1738431666683405,-8.047297564232348,0.1275307536125183,-1.3147542476654053,0.5211820602416992
4.40451123046875,0.908870602055639,0.4997733760751783,-12.498609448850154,0.1851584017276764,-1.6986229419708252,0.6049267649650574
4.424562255859375,-0.8008575327128171,1.145988190217316,-14.81549289152622,0.1850129067897796,-0.7185889482498169,0.2664695978164673
4.4446123046875,-2.987911064904928,1.6746528758645056,-15.41537601647377,0.1492800563573837,0.5424787998199463,-0.1973096132278442
4.46466357421875,-1.5392473572053014,1.522900471907854,-13.360748840999603,-0.0247732792049646,0.895056426525116,-0.3088157773017883
4.484714599609375,-0.3185858014607802,0.8759612890139221,-10.066429063433407,-0.1311652362346649,0.6493396759033203,-0.3790846168994903
4.50476416015625,0.2271326391115784,0.281380946649611,-6.875112564224004,-0.3230523467063904,0.2116899490356445,-0.4459090232849121
4.5248154296875,0.4797289879666641,0.4184315291021019,-3.816538648074865,-0.476471483707428,-0.090429700911045,-0.4179948568344116
4.5448662109375,0.5636376532204449,0.8775681396886705,-0.6239853005468845,-0.5457006096839905,-0.3720386922359466,-0.3161142766475677
4.564916259765625,-0.387351404248923,0.940234220025316,2.4949253031432628,-0.7990103960037231,-0.2553678452968597,-0.3700557053089142
4.584967529296875,-0.7424363234043121,0.912683949798718,4.318004068890214,-1.013771891593933,0.2797432541847229,-0.472887635231018
4.605017333984375,-0.2054839576115831,0.7570122535064816,4.461797038275003,-0.9059463739395142,0.6337636113166809,-0.4348973631858825
4.625068359375,0.6410457409411668,0.3482629641808569,5.079521524861455,-0.5883026719093323,0.4781275391578674,-0.2924345135688782
4.645119384765625,1.3145564121574165,-0.2083563347101211,6.806316675895452,-0.4122731685638428,0.2233563959598541,-0.0547469407320022
4.66516943359375,1.264084408287704,-0.5248415106298402,8.21128459586203,-0.3809211552143097,0.2694565951824188,0.221064493060112
4.685220458984375,0.6148032653775066,-0.645548824514076,8.824859561553597,-0.3805635869503021,0.4501539170742035,0.4050447046756744
4.705271484375,-0.5990294307276606,-1.0046291699811816,10.271023415261508,-0.5018417835235596,0.5263144969940186,0.4184550642967224
4.7253212890625,-1.0857399846773594,-1.448926158028096,10.770002864480018,-0.596189022064209,0.1904703676700592,0.4082074761390686
4.7453720703125,-1.3651111258745192,-1.5771218914389609,9.60533832310438,-0.5412326455116272,0.0419659167528152,0.404066801071167
4.76542236328125,-1.3169716566056011,-1.6025050467595456,9.285728768086432,-0.6288711428642273,0.2697653174400329,0.3348931670188904
4.785473388671875,-1.2755115189701318,-1.823511311945319,8.842620843693613,-0.6981502771377563,0.3703097999095917,0.2256370037794113
4.805524169921875,-0.699620533376187,-1.7567714793637397,7.604121835300326,-0.6115136742591858,0.2317834496498108,0.3613379895687103
4.825574462890625,-0.6600887334547937,-1.758746140437573,6.292402692395449,-0.4918015897274017,-0.0446134582161903,0.4308389127254486
4.845625244140625,-1.3064973166033624,-2.061828631285578,4.0313691472351545,-0.3784871101379394,0.0862774550914764,0.3587065041065216
4.86567626953125,-0.4714630812615156,-2.0516268246144054,1.4760054497420787,-0.1956304758787155,0.6881411075592041,0.6497024893760681
4.8857265625,-0.5876768465861678,-2.0741030064471064,-2.015382375800609,0.33960622549057,0.5784271955490112,0.9287503361701964
4.90577734375,-0.1958867292374372,-2.254847842262685,-4.158694381421804,0.5863983035087585,-0.1387826949357986,1.154516339302063
4.92582763671875,-0.794058081831038,-2.0359823884978887,-5.202940399259329,0.2887506186962127,-1.2220451831817627,1.1673439741134644
4.94587841796875,-0.8273327941190451,-1.301757136338949,-9.41389629831612,-0.0063609723001718,-2.708549737930298,1.0490370988845823
4.965929443359375,-0.9752814949437976,0.578772459314391,-18.62995297976136,0.340131402015686,-2.464712381362915,0.7562686800956726
4.9859794921875,-2.234364295551926,2.63829390963614,-22.25273197375536,0.7310149669647217,-0.5912279486656189,0.461286336183548
5.0060302734375,-2.281314408905804,3.3042060885474083,-19.61441292967796,0.8629702925682068,-0.1340227723121643,0.1579267084598541
5.026081298828125,-1.226044746620208,3.554610005392134,-15.388551137912271,0.8218210935592651,-0.5865275859832764,-0.1162508875131607
5.04613134765625,-1.0833797583520413,3.305510449144244,-11.384564503121377,0.495674729347229,-0.8732843995094299,-0.5428575873374939
5.066182373046875,-0.2000899165483191,2.955221970485151,-8.371020984309911,0.0320075489580631,-0.6834896802902222,-0.8954184055328369
5.086232421875,1.0456535465478896,3.107888858938217,-6.514993304163217,-0.0917438864707946,-0.3892387747764587,-0.9714868664741516
5.106283447265625,2.6384970309928057,3.395288335224986,-3.882580269259214,0.1350151151418686,-0.9059706330299376,-0.8768543004989624
5.12633447265625,3.986527550467848,2.887706769616902,1.339831723189354,-0.0179814100265502,-1.465802550315857,-0.6256105303764343
5.14638427734375,3.890684957520664,2.216408221492171,5.123816009140015,-0.33578822016716,-1.006430983543396,-0.379252552986145
5.166435302734375,2.720495222982764,1.8265325594626367,4.792181085285544,0.0174413435161113,-0.3251642286777496,-0.1661078780889511
5.186486572265625,2.1694415953949093,1.2674480395019054,6.54525692500174,0.2170899659395218,0.1556080281734466,-0.0552487596869468
5.2065361328125,1.34026777651906,0.1262323609160259,10.299251146358252,0.0036035587545484,0.3579179346561432,-0.1826455891132354
5.22658740234375,1.3681906794503331,-0.1380922735251486,10.826720192480089,-0.0938732475042343,0.4260111153125763,-0.3574807941913605
5.24663720703125,1.4360335048377513,-0.1381296463934704,10.133087939733269,0.0122676100581884,0.7917163372039795,-0.43145951628685
5.266688232421875,1.9270603876166044,-0.3505811049301177,10.444394945830108,0.0079133687540888,0.8929123878479004,-0.3204187452793121
5.2867392578125,2.096660144561529,-0.7097352462857961,10.50793013715148,0.0746417492628097,0.6625101566314697,-0.189232125878334
5.306789306640625,1.6716110239505766,-0.9286524302378296,9.784532276216147,0.1293437629938125,0.5681968927383423,-0.0942168459296226
5.32684033203125,0.9300207229163496,-1.1103688144993036,9.23373846860826,0.0580942668020725,0.6641173362731934,-0.1052230671048164
5.346890380859375,0.7267853114165366,-1.2653973905824123,8.681400938689709,-0.1453484892845153,0.9373552799224854,-0.0462543666362762
5.36694140625,0.7563688410364091,-1.0435297593269497,6.575367985627055,0.0253375694155693,1.2751449346542358,0.1328681409358978
5.386992431640625,0.2395306041201576,-0.996799937660247,3.7664813624858855,0.6014294028282166,1.2156108617782593,0.2753203809261322
5.40704248046875,-0.2451572118302807,-1.5896614934079347,3.1706454671025277,0.7501419186592102,0.7951472997665405,0.3668360710144043
5.427093505859375,-0.008504866560176,-2.145785117736459,2.021833159375191,0.4669574201107025,0.5965368151664734,0.4784435927867889
5.447145263671875,0.2697675196148455,-2.344731088414043,-2.5677041236281397,0.4554242789745331,0.1292794495820999,0.6652975678443909
5.467195068359375,-0.9460574462860822,-2.082508285090327,-6.984023020797967,0.3170174360275268,-1.127530813217163,0.6022746562957764
5.487246337890625,-2.1925617742195724,-2.384335369049757,-10.007842434430122,-0.6486238241195679,-2.7323968410491943,0.1625567972660064
5.5072958984375,-3.2858988629624246,-1.0014354885064063,-20.167412722897527,-0.7771828770637512,-1.6868772506713867,-0.2294665277004242
5.527346923828125,-2.171298767568916,2.6744340212926265,-26.49568050940037,-0.0037572442088276,0.8259150981903076,0.2159564793109893
5.547398193359375,-2.435201779064536,1.4075159970141946,-19.861137281227112,0.3310968279838562,0.9690948724746704,0.1604006290435791
5.567447998046875,-2.1196802240125834,-0.2829837056711315,-10.61498298316002,0.4013600349426269,-0.5271605253219604,-0.1258692145347595
5.5874990234375,-0.5782650212489068,-0.2264282902345061,-4.739311080363392,0.2115090489387512,-1.436265230178833,-0.1788636445999145
5.607549072265625,0.7538864496361464,0.9658255382038652,-0.9117167852669954,-0.3226149380207062,-0.89873868227005,-0.0785611867904663
5.62760009765625,0.1426608235497027,1.1831047456905246,1.9809113664001223,-0.7046392560005188,-0.5909950137138367,-0.3666613101959228
5.647651123046875,0.2477363050706684,0.7951037914916873,3.350990928336978,-0.7818273901939392,-0.9161250591278076,-0.6328340768814087
5.667701171875,2.515350251534581,1.2246724353536962,2.788363475072384,-0.4143583178520202,-0.7794111967086792,-0.4874980449676513
5.687752197265625,3.1829905694127083,1.5607354047834872,2.8616297868132587,0.0521922595798969,0.1370818763971328,-0.2956061363220215
5.707802001953125,1.0433883780948816,0.6789948747809976,6.423035735955834,0.2147682905197143,0.8339979648590088,-0.436093658208847
5.72785302734375,0.2146915290810167,0.2170885802853852,9.057108813026549,0.3638090491294861,0.8863804936408997,-0.629403293132782
5.747904052734375,0.8477286625463515,0.3235131383277476,10.51497596400976,0.3648608326911926,0.5932443737983704,-0.7570018172264099
5.7679541015625,2.084436915065348,0.0794184046298265,11.794681427538396,0.1357920467853546,0.464887410402298,-0.6028586626052856
5.788005126953125,1.929637690758705,0.0135169225685298,12.159399705827235,-0.2503174543380737,0.2373212724924087,-0.4517665207386017
5.808054931640625,1.928876204866916,-0.4495861804962158,9.71373732302487,-0.2657845020294189,0.1589610427618026,-0.2525522112846374
5.828106201171875,2.141353711160272,-0.6494510195843876,6.991774950098991,-0.0632588267326355,0.2997739315032959,-0.0020084232091903
5.8481572265625,1.6917083478227255,-1.0651908253844826,6.245595348513126,0.082286037504673,0.3880492150783539,0.1146527752280235
5.86820703125,1.115553669791296,-1.2271025851100683,5.51855357811749,0.2569602727890014,0.6268712282180786,0.2557708323001861
5.88825830078125,1.2886981866709888,-1.1128842313863336,4.246942573717236,0.6281711459159851,0.7601858973503113,0.5549547672271729
5.90830810546875,0.7504594708621501,-1.0581158454969524,3.600006605693698,0.9383134245872498,0.799793541431427,0.7437172532081604
5.928359130859375,-0.3452543569494039,-1.4685937121808528,3.116680652680993,1.0985335111618042,0.9178239703178406,0.6931791305541992
5.948410400390625,-1.1861918980509043,-1.4136828490808606,2.1496423776865003,1.104424238204956,0.9795483946800232,0.5504581332206726
5.9684599609375,-1.6329035460241137,-2.2571792078197,2.131618060696125,0.7082908153533936,0.6358657479286194,0.1711698621511459
5.988510986328125,-1.496484174147248,-2.618285725352168,1.822180355602503,-0.2557076811790466,-0.3891158699989319,-0.201261505484581
6.008562255859375,-0.169952040981315,-2.566436003388464,-4.418607884889841,-1.1403477191925049,-2.1664483547210693,-0.3246522545814514
6.028612060546875,0.6977417338922619,-0.4784926876373588,-18.73607526692152,-0.234789028763771,-1.9947898387908936,0.0180824715644121
6.0486630859375,-0.742393653306365,1.8924574223995208,-26.313658054864405,0.7333366870880127,-0.0264155380427837,0.3146711885929107
6.068713134765625,-3.446105499270558,0.8886283167548477,-20.7705644942522,0.6254145503044128,0.8360783457756042,-0.0752624720335006
6.08876416015625,-3.643948331011832,1.3093074055880307,-15.364715504294631,0.4577867686748504,0.7779215574264526,-0.429811418056488
6.108814453125,-1.242986967462301,1.2660215138301252,-11.20659629241228,0.3372583091259002,0.4678986072540283,-0.4630978405475616
6.128865234375,0.4744856439530849,1.0977053669549524,-7.821676790988445,0.2405053377151489,0.2975997626781463,-0.3583105802536011
6.148916259765625,1.282489102897793,1.482047360254824,-5.486359281477331,0.3620535433292389,0.2797126770019531,-0.2381910234689712
6.168966064453125,0.8464515552826225,1.997631907315552,-2.411512860441208,0.5166109204292297,0.1705775707960128,-0.2621382772922516
6.18901708984375,1.3160513268902898,2.462855509665608,3.505709196361899,0.0668572187423706,-0.1840046644210815,-0.2636281251907348
6.20906689453125,2.214741749584675,2.449565527720749,6.906260566681623,-0.4632923007011413,-0.3040637075901031,-0.1417166888713836
6.229117919921875,2.4418235352918503,2.379176086590439,6.279628551018238,-0.3846856653690338,-0.1141730174422264,0.1393453329801559
6.249169189453125,1.6315920250341296,1.8669472796984017,5.577715961182117,0.0323667414486408,-0.0770701691508293,0.2873217463493347
6.269218994140625,0.8636082956582307,1.1788513260297475,7.989590056151151,-0.0183040462434291,-0.0841382890939712,0.4121650755405426
6.28927001953125,0.7625166961416602,0.5635945447310805,10.275095194745065,-0.2816860675811767,0.0422112308442592,0.5093979239463806
6.3093203125,-0.0429395671048434,0.3075355247341096,9.768501178869604,-0.272381991147995,0.2838367521762848,0.4807383716106415
6.32937109375,-0.3647900283508002,0.3280383606672287,10.045934556937215,-0.3037466704845428,0.4444366097450256,0.4449628889560699
6.349422119140625,-0.2204510607221163,0.0418511827796697,10.795555823409556,-0.4010920524597168,0.2923692166805267,0.4479383528232574
6.36947216796875,-0.2468687284559011,-0.2967820755295455,10.056776268947123,-0.3519645035266876,0.0481053031980991,0.4122355580329895
6.389523193359375,-0.4331974288184195,-0.5634732564389705,8.875127859544753,-0.3010924756526947,0.1236462295055389,0.371277391910553
6.409572998046875,-0.3662061056938022,-0.6168358671836555,8.16447666745782,-0.1741205155849456,0.2820157408714294,0.3757326900959015
6.4296240234375,-0.2340107812527567,-0.6908228944145143,6.9544234168261285,0.0247693695127964,0.2778754234313965,0.3747954964637756
6.44967431640625,-0.2097286459766328,-0.9730727328531444,6.372751655873656,0.0514580197632312,0.3714662790298462,0.3911174833774566
6.469724365234375,-0.0023894524198025,-1.3244750179730356,4.326865420737862,0.1588588804006576,0.5851550102233887,0.4581261575222015
6.489775390625,-0.2384374385885894,-1.871378540144116,1.2812287275731562,0.3499899506568908,0.5258947014808655,0.4423355758190155
6.509825439453125,-0.0522733176706358,-2.8132956717550752,-0.6433306370079517,0.1642630994319915,0.136032149195671,0.4577229619026184
6.52987646484375,0.0061787617001682,-2.5187232350990176,-5.544431531217694,0.161915585398674,-0.6757362484931946,0.473396360874176
6.549927490234375,-0.7197549743883311,-1.5752315476477146,-10.215760377722978,-0.0143476231023669,-1.474249243736267,0.3968424797058105
6.5699775390625,-1.437716343358159,-1.048133380664885,-15.475990936434268,0.0320798903703689,-1.1412442922592163,0.1953765004873275
6.590028564453125,-1.400506995034963,0.3197659146234393,-20.008172593533992,0.5985735058784485,0.1678063571453094,0.2054065465927124
6.610078125,0.057271966208145,0.6176020292505622,-17.373919483721256,0.8315716981887817,0.3849345743656158,0.32660773396492
6.63012939453125,-0.5371279780879616,0.7848743661612272,-12.246533214879037,0.5897379517555237,-0.0333573445677757,0.2665728628635406
6.650179443359375,-2.4338885045088827,0.8515446406379341,-9.412488185083866,0.2314970195293426,-0.2028581202030182,-0.0836907401680946
6.670230224609375,-2.560781338627636,1.112589778484404,-7.310651514667272,-0.0371638052165508,0.036758080124855,-0.3474651277065277
6.690281494140625,-1.0027025858327745,1.7706668798558414,-5.50698939705193,-0.113983117043972,0.3101606070995331,-0.3608241677284241
6.710331298828125,-0.6404890569064766,1.6007187478646636,-2.5016841297537087,-0.0770279467105865,0.1424717307090759,-0.3927957713603973
6.73038232421875,-0.4006556339148431,1.5169943166039883,1.4203431837528944,-0.1410118192434311,-0.4713693559169769,-0.4642165899276733
6.7504326171875,-0.777869748096168,1.546685690512508,4.737629410886764,-0.4226258099079132,-0.7997108101844788,-0.7021397948265076
6.7704833984375,-0.3871873727936297,1.7264830163449048,5.763775123888254,-0.6318819522857666,-0.4861266911029815,-0.8493137359619141
6.790534423828125,0.6167322606787086,1.7452677963137626,5.457420771762728,-0.5494154095649719,-0.3073754012584686,-0.8657017946243286
6.810584228515625,0.8174328199386596,1.234360008892417,6.283057356423139,-0.5170989036560059,-0.3688511252403259,-0.8533104658126831
6.83063525390625,0.7057782522883266,0.744801298969984,7.185977671772241,-0.60700523853302,-0.0199110452085733,-0.874256432056427
6.850685546875,0.9251248406335713,0.5582816791452467,5.898203468078375,-0.3092982172966003,0.4963525533676147,-0.8424844145774841
6.870736328125,1.546362011516094,0.5058370600283145,5.640681828182935,0.021015428006649,0.6961236000061035,-0.6418144702911377
6.890786376953125,1.8034993282690643,0.0764611622594296,7.469130012008548,-0.0381847396492958,0.5259457230567932,-0.3731192052364349
6.91083740234375,1.4978727058961987,-0.1534453254796564,7.5268597319215536,-0.0565934889018535,0.4203079044818878,-0.0970839634537696
6.930888427734375,1.1602549813050775,-0.2351043486431241,5.653557676368951,0.2505142986774444,0.3509840071201324,0.1535240262746811
6.9509384765625,0.6704355015546083,-0.5960397473923862,4.6679912265151735,0.4274674654006958,0.4035391807556152,0.2683171927928924
6.9709892578125,0.3227331303985789,-0.6186997613593935,3.0067414375811814,0.7757849097251892,0.5797010064125061,0.4133563935756683
6.99103955078125,-0.2184770024364814,-0.3539038926772773,1.6160381898105145,1.2205239534378052,0.4574625492095947,0.4708431363105774
7.01109033203125,-1.1032416660331188,-0.3526886716686189,2.8472049556195733,1.1869924068450928,0.4251583814620971,0.369156539440155
7.031140380859375,-1.1877501603435725,-0.5777377825044095,2.788963194531202,0.830938994884491,0.4580963850021362,0.1860939413309097
7.05119140625,-0.730332993960753,-0.1205913958869874,-0.2217904013007879,0.7407779693603516,0.5513896346092224,0.1271387636661529
7.0712421875,-0.0445016972884535,-0.0285851662322878,-2.3216975649595257,0.602138340473175,0.0160609185695648,0.2266280502080917
7.09129248046875,1.1121526291761548,0.001870470046997,-3.4627105971127747,0.3160737752914428,-0.8645636439323425,0.4321774840354919
7.11134326171875,1.1020617355335502,-0.0344178179085254,-5.867373445528745,-0.1556596457958221,-1.1392477750778198,0.647545576095581
7.131393310546875,0.5021441968597471,0.092082655891776,-8.919965364658832,-0.4793983697891235,-1.0787674188613892,0.6958091855049133
7.151444580078125,-1.6548340766727925,0.438253031707555,-11.774835740339755,-0.735427737236023,-1.0455615520477295,0.4113937318325043
7.171494384765625,-2.732358679255843,0.7891830231405794,-14.63244635463953,-0.7366737723350525,-0.2815751135349273,0.063670665025711
7.19154541015625,-1.6028145511001348,0.4560962930426001,-14.422191492831706,-0.7350788712501526,0.2793339788913727,-0.1659486889839172
7.211596435546875,-0.3479188999835401,-0.1763634058609604,-10.427128169208764,-0.8538748025894165,0.1049873083829879,-0.2824408710002899
7.231646240234375,0.7878568891033529,-0.0673430591717362,-6.933241512587666,-0.881458044052124,-0.2130094021558761,-0.2361440956592559
7.251697265625,1.478790258155018,-0.1809803981371223,-4.674299971270561,-0.6953717470169067,-0.3699277639389038,-0.1194865703582763
7.271747314453125,1.925738052971661,-0.018616437664628,-1.7236580220520494,-0.4498923718929291,-0.3028698265552521,0.0949914008378982
7.29179833984375,1.2522531007185578,-0.4284583445325493,1.8390204312443728,-0.3150006234645843,-0.3725316822528839,0.0366819091141223
7.311848388671875,0.5080683992769569,-0.747278210477531,5.022547591751813,-0.3297728896141052,-0.4862746894359588,-0.1274604201316833
7.3318994140625,0.3753438267974183,-0.513349481485039,6.435319463467597,-0.300417959690094,-0.1542302221059799,-0.2824438810348511
7.351950439453125,0.4955119923036545,-0.2486383684769272,6.780236478221416,-0.1765417009592056,0.5684347152709961,-0.2935275137424469
7.37200048828125,0.486060821336694,-0.4001910120777786,7.91366709242165,0.0209599323570728,0.776112973690033,-0.3228254914283752
7.392051513671875,0.0212325749797746,-0.5033291688606143,9.15593217535019,0.1577368080615997,0.4282185733318329,-0.4042471945285797
7.412101318359375,0.7690931519225239,-0.6592892536401749,9.944524685251713,0.1365813165903091,0.2689181566238403,-0.3059737980365753
7.432152587890625,1.7876514785349369,-0.2548319624200463,9.603254502567648,0.1955357789993286,0.4433899521827698,-0.0070803919807076
7.452202392578125,1.219938246438652,-0.1843013592533767,9.11422829208672,0.3078771531581878,0.4458352923393249,0.1284019947052002
7.47225341796875,0.4067088695392012,-0.5078606748104095,9.44256183630824,0.2452396750450134,0.2065517902374267,0.1002564430236816
7.4923046875,0.3607674217712134,-0.6457445662818849,8.610942085584998,0.2008737176656723,0.0212727710604667,0.140217900276184
7.5123544921875,0.9142325674802064,-0.4973091779187321,5.532535341718793,0.4150315225124359,0.1848685890436172,0.3588146865367889
7.532405517578125,0.6168507724918425,-0.217798993577063,2.392621112966537,0.8669954538345337,0.449590802192688,0.5372718572616577
7.55245556640625,-0.2536283222513273,-0.4200228168815374,1.2854209185659884,1.0251827239990234,0.5450696349143982,0.605175793170929
7.572506591796875,-0.8130197527367621,-0.7438597803361714,1.1987620412886142,0.919660210609436,0.7688117027282715,0.546211838722229
7.592556884765625,-1.1529406397037207,-0.709581663159281,-0.5696779562979937,0.9286863803863524,0.957743227481842,0.4453276693820953
7.612607666015625,0.0305012289866805,-0.6633388212919235,-1.440963362455368,0.5946183800697327,0.1002250984311103,0.6350004076957703
7.63265869140625,0.1848014907952398,-0.3578627133056521,-2.9403993721455333,0.3075238764286041,-1.2577418088912964,0.6531635522842407
7.652708984375,-1.809413813009858,-0.4748449787847697,-3.793008134883642,-0.6357719302177429,-1.6115643978118896,0.3641789853572845
7.672759765625,-2.708462255361676,-1.1325840803734957,-7.235964230212569,-1.5294978618621826,-1.2188072204589844,-0.1957578063011169
7.6928095703125,-1.1964248305127023,-0.1843883068844675,-14.999334378182889,-1.3981943130493164,-0.849178671836853,-0.2743120789527893
7.712860595703125,1.1561058257363737,1.2117970255590975,-19.309374336326123,-0.6528284549713135,-0.7546231746673584,0.1426678448915481
7.73291064453125,-0.1962615173665806,0.5499933048799633,-16.271140612894296,-0.4132349193096161,-0.6842854619026184,0.1656395494937896
7.75296142578125,-2.188722049926221,-0.2625308463595807,-10.46960303684473,-0.6391923427581787,-0.2040641456842422,-0.0824607908725738
7.773012451171875,-1.6748764554873108,-0.3217375069573521,-6.298074308291077,-0.7813746333122253,-0.0126011930406093,-0.2913303077220917
7.793062744140625,-0.3568281826261431,-0.1627732719257474,-3.5879011573582886,-0.6259286999702454,-0.3414476215839386,-0.3305574059486389
7.813113525390625,0.8623476280726492,0.2292063035804778,-0.9726748195767402,-0.2956061661243438,-0.7094120979309082,-0.2482953816652298
7.833163818359375,0.4919106798760592,0.4023862570997327,0.8164297803759575,0.0411950387060642,-0.5676161646842957,-0.3163017332553863
7.853214599609375,0.2916743040617555,0.194601584797725,3.55304144090116,0.0483362413942813,-0.0682523772120475,-0.4330277144908905
7.8732646484375,0.0134389619614928,-0.1609675376780331,6.19036504420042,-0.052179679274559,0.3087701797485351,-0.6885809302330017
7.893315673828125,0.8694120865661651,0.0528091415803879,7.079204227226972,0.0159622989594936,0.5744754076004028,-0.7756123542785645
7.913365478515625,2.2170459348738194,0.4224512861374765,7.401227273127436,0.1641919910907745,0.7480483055114746,-0.5477123856544495
7.93341650390625,2.1981863361030816,-0.0118545423142611,8.642785669091344,0.0828853324055671,0.557042121887207,-0.4488052427768707
7.953466552734375,1.2698445792496205,-0.6770777160480618,8.780967812857032,0.0591975264251232,0.2384427487850189,-0.4934661090373993
7.973517578125,1.1152971377469598,-0.7791244243323803,7.916223791167139,0.2388630360364914,0.2734318375587463,-0.4112044274806976
7.993568603515625,1.4552692434445025,-0.5605287274196744,8.175732220965623,0.3058667182922363,0.4749743938446045,-0.2403424829244613
8.01361865234375,1.3970892955459653,-0.6414129668183625,8.740056541275978,0.2008402198553085,0.4469870030879974,-0.1412671208381652
8.033669677734375,1.0430476748984308,-0.5539090170189738,7.546985989627242,0.1846217364072799,0.3407959938049316,-0.0372851379215717
8.0537197265625,0.3256992501951753,-0.6167373752452433,5.102368731963634,0.3961589634418487,0.4067835807800293,-0.0844609141349792
8.073770751953125,0.3041960050478577,-0.5674506356373429,3.326810426804423,0.6476660966873169,0.5504195690155029,-0.0210948195308446
8.0938203125,0.3577612256925553,0.0210401576802134,1.766526272919774,0.8832857012748718,0.8274790644645691,0.2265476584434509
8.11387158203125,0.9417580685917288,0.0436655387252569,0.2709714885771274,0.9822106957435608,0.7194896936416626,0.5072885155677795
8.133921630859374,0.3987339451372623,-0.8691095234230161,-1.3784236119121311,1.069135308265686,0.080353282392025,0.6025791168212891
8.153972412109376,0.479412871222198,-0.6947507353827357,-2.929803159329295,1.0496206283569336,-0.7743703722953796,0.672583818435669
8.174023681640625,-0.7354132198344916,-0.2791150475442409,-2.60241011082828,0.4957778751850128,-1.1599923372268677,0.4385032951831817
8.194073486328126,-2.0896412057101723,-0.3234282365232706,-4.647922251954674,-0.1629488319158554,-0.9894465804100036,0.0914198234677314
8.21412451171875,-1.601308822712302,-0.0514534161224961,-9.958787019360065,-0.3756760358810425,-0.5771835446357727,-0.0074829505756497
8.2341748046875,0.1275588237468153,0.6469827297747135,-13.87712015452385,-0.1033434495329856,0.0834819599986076,0.1632263958454132
8.2542255859375,0.6315699104569852,0.4296723964974284,-12.963028456819057,0.0968178138136863,0.1739157438278198,0.2575257122516632
8.274275634765624,-0.4610773693908006,-0.391233360248804,-9.505348839610814,-0.0831862986087799,-0.2030084878206253,0.1404747366905212
8.294326416015625,-1.575980174057931,-1.031061980485171,-6.688000677594542,-0.4917730689048767,-0.2345070093870163,-0.0141142206266522
8.31437646484375,-2.7378932247683405,-1.0728313302002848,-4.724953469187021,-0.8299641609191895,-0.0053200009278953,-0.3809995353221893
8.334427734375,-2.040879805150628,-0.7315506261222064,-3.3653906250894066,-0.9512360692024232,-0.2219576388597488,-0.7959452271461487
8.3544775390625,-0.7645658106911927,0.1974446262039244,-1.297891108560562,-0.96928608417511,-0.5012505650520325,-0.9161779880523682
8.374528564453126,-0.2156155485907569,1.1477161830537022,-0.4905985743641853,-0.6897053718566895,-0.39321368932724,-0.9373083114624025
8.394579833984375,-0.4544146235659718,1.6910244572117925,0.5453682754278183,-0.2937968373298645,0.1552389562129974,-0.8103622198104858
8.414629638671874,-0.3168891170781105,1.503616217984259,3.2979484894573687,-0.2182683199644088,0.282959520816803,-0.8095487952232361
8.434680419921875,-0.0793312743356451,0.7809417028874158,5.945310671690106,-0.5565119385719299,0.0059460536576807,-0.7396076917648315
8.45473046875,0.4856048942627385,0.4468362972661852,5.708164295825362,-0.5227165818214417,0.0982677564024925,-0.6961036920547485
8.474781494140625,0.8430505146674812,0.3752427410431206,4.562461060029268,-0.0832167714834213,0.4260973930358886,-0.5861722826957703
8.49483154296875,1.1090374928303062,0.2066699890583753,5.459903820750117,0.2710938453674316,0.7539383769035339,-0.4665230512619018
8.514882568359376,1.167885476183519,-0.1796786678887903,7.65241795643568,0.3014224171638489,0.7269740104675293,-0.3777910470962524
8.534932373046875,1.0880633130583912,-0.6318009427338839,8.96853328847289,0.1297404766082763,0.1664762496948242,-0.4478504955768585
8.554983642578126,1.176931098556891,-0.3356633025877177,8.34582867538631,0.2003160864114761,0.0480204224586486,-0.310255765914917
8.57503369140625,1.1323776710812,0.117753542112559,7.055978249940276,0.4027447402477264,0.3607175052165985,-0.160574585199356
8.59508447265625,0.583522576450929,-0.2766815367870032,6.996877826195955,0.5221775770187378,0.4147313833236694,-0.1250130385160446
8.6151357421875,0.0438484575441107,-0.205543176985532,6.508015866366028,0.6167174577713013,0.1808278560638427,-0.1011789068579673
8.635185302734374,0.4482335603108629,-0.3762241532959043,4.635276705393195,0.4763273894786834,-0.271039754152298,-0.0321135409176349
8.655236328125,0.5150974941961467,-0.5492920247428119,1.2276023513257504,0.3683942556381225,0.1050082594156265,0.1970700174570083
8.67528662109375,-0.1282448332495987,-0.2599023975521325,-1.6722095743656158,0.6345924139022827,0.968526303768158,0.3361425101757049
8.69533740234375,-0.4493859086837619,-1.2821215847596523,-2.447126610136032,0.7564966678619385,0.4225824773311615,0.2410977482795715
8.7153876953125,-0.4791389496516436,-1.6941813138075172,-3.905516908210516,0.7543408274650574,-0.9912530183792114,0.0795120447874069
8.7354384765625,-0.1475320097826421,-0.430918889427185,-8.92925750913918,0.8998996615409851,-1.3905750513076782,0.073445901274681
8.755488525390625,-0.007377401466784,0.6635176849901676,-11.222736110830306,0.6924347281455994,-0.1086515337228775,0.3051937222480774
8.775539794921874,-0.4675925234384834,0.5684022372737526,-10.765862111413478,0.4192487597465515,0.7206997275352478,0.4411340951919555
8.795589599609375,-0.3194463272802531,-0.2770475936204195,-8.932567656600474,0.1746287792921066,0.1793885082006454,0.3988820612430572
8.815640625,0.1650583141230046,-1.0601529042825102,-7.484967632609606,-0.2265322506427765,-0.4089566469192505,0.2676444053649902
8.8356904296875,0.8689112243719398,-1.2659493253767489,-6.221668529480695,-0.8110277056694031,-0.5400606393814087,0.2927597165107727
8.855741455078125,0.7572137674279511,-1.1571300542175769,-6.4153609635442495,-1.0627970695495603,-0.714135468006134,0.2309468388557434
8.87579248046875,-0.5166533453360199,-0.5506726654462516,-6.805243493705987,-0.7715831995010376,0.0193523373454809,0.1607775241136551
8.895842529296875,-1.2042973174534737,-0.0380688877619802,-3.19518428055346,-0.6753095984458923,0.626904308795929,0.0613834746181964
8.9158935546875,-0.4016520976062864,0.1724547079846262,2.230280679500103,-0.8500150442123413,0.1182670891284942,-0.0721310153603553
8.935943603515625,0.8826124174661933,0.3542486144617199,5.493329705011845,-1.316415309906006,-1.150576949119568,-0.0526085123419761
8.95599462890625,1.8327680928513408,0.5964727319821715,4.107340626281499,-1.581074357032776,-2.022991895675659,0.1115995943546295
8.97604443359375,1.66773476703912,0.5905106087073684,-0.1830032822668552,-1.1707921028137207,-1.2637172937393188,0.4405252039432525
8.996095703125,-0.683655340872705,0.217204973206669,-1.2978525301158428,-0.4226989448070526,0.423222929239273,0.4526075422763824
9.0161455078125,-1.5700839556261896,-1.0856035718813537,1.127094396916032,0.0701391324400901,1.259573459625244,0.0528684593737125
9.0361962890625,-0.6088475718434899,-1.196923354619369,5.088621361640096,0.1742177307605743,1.2870279550552368,-0.196376696228981
9.05624658203125,0.6142229812715202,-0.6307275413487107,6.832521961253881,0.294080525636673,0.9060180187225342,-0.1580900251865387
9.07629736328125,1.3437753462485968,-0.002252747362852,7.3888739875108,0.4101560413837433,0.8205113410949707,0.1286085844039917
9.09634765625,0.8291143437735736,0.2506481008641422,8.069457373592257,0.5439138412475586,0.7997796535491943,0.2574712336063385
9.116398681640623,0.0350137379750609,0.2300426813393831,7.955656222367287,0.8016891479492188,0.5458822250366211,0.1627966612577438
9.136448486328124,-0.52991804670915,0.7964312407031655,8.025204974889755,0.8363761901855469,0.0524783767759799,-0.0477482490241527
9.156499755859375,0.4178917962022125,1.1671243556179105,8.03707719899118,0.6378155946731567,0.2717868387699127,0.1295887976884842
9.176550537109376,0.0976500807605683,1.1508319769866764,7.295258715224266,0.2474486976861953,0.4576151669025421,0.3527683913707733
9.1966005859375,-0.250856336787343,0.4172480914711952,4.662299736875295,0.2092387378215789,0.3385986089706421,0.4083423018455505
9.216651611328125,-1.0719321894034743,0.2944808128498494,0.960908978459239,0.5895671248435974,0.0741884335875511,0.3809640407562256
9.236701416015626,-0.5705695713754743,0.6060778879344463,-1.078917518246174,0.8869436979293823,0.3236545026302337,0.6605302691459656
9.25675244140625,-1.1281793426085265,0.336399507907778,-0.4531295521914958,0.7539258599281311,0.788741946220398,0.899064838886261
9.276802490234376,-0.917680442911759,-1.2383413336135447,0.9141133250147104,0.237013578414917,0.2780354022979736,0.7302029728889465
9.296853515625,-0.6837683727931231,-1.212152853259444,-0.9003104251116514,-0.1168151423335075,-0.9641191959381104,0.3780330717563629
9.316903564453124,0.7207867285888642,-0.4032461618646979,-4.154267797151208,-0.6393380761146545,-1.8051987886428835,0.5796126127243042
9.33695458984375,-0.1146788108423352,0.0869999458000063,-8.432911331033706,-0.9554015398025512,-0.773145854473114,0.6134665608406067
9.357004638671874,-1.629393199815601,0.3950510188408195,-8.919733893990516,-0.8765947222709656,1.170122742652893,0.6066843271255493
9.377055419921875,-0.3690446901205927,0.6605288784377277,-8.726406201586126,-0.080358050763607,1.7574485540390017,0.2386269718408584
9.39710546875,0.8596958714548498,-0.7006991223931313,-5.513844669774175,-0.1465567499399185,0.3861115574836731,-0.1397893130779266
9.41715625,1.7543923291422423,-1.4797484356626869,0.2578764446824789,-0.9826114773750304,-1.0556427240371704,-0.1711195558309555
9.437206298828125,1.8912120985135437,-1.3271357616148889,-0.8642150293797254,-1.578824758529663,-1.1127723455429075,-0.0476428717374801
