timestamp,acc_x,acc_y,acc_z,gyro_x,gyro_y,gyro_z
0.108087158203125,0.0370057155098766,0.0233646551050245,0.1486854176014661,0.0115522481501102,0.0056701740249991,-0.0037454147823154
0.12813916015625,0.0631028277860954,0.0141094816341996,0.0827805745393037,0.0025333533994853,-0.0088810650631785,0.0030513694509863
0.148191162109375,0.0360180561793968,0.0332066885530948,0.0878857887238264,0.0156621765345335,0.0269760899245739,0.0048099616542458
0.1682431640625,0.0435922542933374,-0.0258338947627693,-0.0166004216670989,0.0016052233986556,-0.0093407556414604,0.004820046480745
0.188295166015625,0.0316758257240057,-0.0493287521187216,0.2627005038380622,-0.021133616566658,-0.0090431049466133,0.0086676739156246
0.20834716796875,-0.0063402724048122,0.0393332086093723,-0.2913689644396305,0.0242761895060539,0.022064983844757,0.0080150039866566
0.228399169921875,-0.0159380853008478,-0.0510727462418377,0.2561345694512129,-0.0061712972819805,-0.0074505573138594,-0.001297406386584
0.248451171875,-0.08167440339569,0.0805921245843172,-0.0864133780837059,0.0076883579604327,0.0533158369362354,0.0011041071265935
0.2685029296875,0.0773560652725398,-0.0493684996072202,0.1644406206160783,-0.0190992467105388,-0.0319002456963062,0.0063169728964567
0.288554931640625,0.0446091397183015,-0.0309334098588675,0.2256155125468969,-0.0199363678693771,-0.0317842438817024,-0.0100603066384792
0.30860693359375,-0.0991179613560438,0.0061043082244694,-0.1101151561886072,0.0034617988858371,0.0043106474913656,-0.0103049213066697
0.328658935546875,0.0982761037044227,-0.0496578379426151,0.0705570527821779,-0.0246913395822048,-0.0093499757349491,0.0257132537662982
0.348711181640625,0.0594414192017167,-0.0099237934473901,0.0385807828068733,-0.0018225625390186,0.0084638204425573,0.0081006549298763
0.36876318359375,0.0248247907854616,-0.0085316815018653,-0.0744990684062242,0.0126158688217401,0.0010986528359353,0.0179470106959342
0.388815185546875,0.144956606336683,0.0411984179593622,0.1999310361921787,-0.0096248751506209,0.0002985899336636,0.0434796176850795
0.4088671875,-0.063532451375015,0.0147938837017863,-0.0748830992877483,0.0148068564012646,0.0072967014275491,0.0127008315175771
0.4289189453125,-0.0502419214408844,-0.0724773533202707,0.1091039333194494,-0.0064585618674755,0.0012210751883685,0.0111027099192142
0.448970947265625,-0.0028402649272233,0.0319855492603033,0.079902388754487,2.7377391234e-05,-0.0049021737650036,0.0205097533762455
0.469023193359375,0.0320451339604333,-0.0192138190358877,0.1047059906214475,-0.0170044228434562,-0.0332350507378578,0.0270726568996906
0.4890751953125,0.0537002452012151,0.009909180400148,0.0559013354420661,-0.0030574749689549,-0.0407173819839954,0.0345597118139267
0.509127197265625,-0.0305051014441996,-0.0307670403160154,0.0717664285719394,-0.0194975100457668,-0.0288241282105445,0.0211587231606245
0.529179931640625,-0.0661101929085329,-0.0298100318521261,0.080900167620182,-0.0053461687639355,0.0003375564701855,0.0224704481661319
0.549231201171875,-0.0505631892845034,-0.0067241206232458,-0.0435375284314155,0.0156385600566864,0.0335264429450035,-0.0018581375479698
0.5692841796875,-0.0395844434240832,-0.0494699872203171,-0.0077022449404001,0.0190220046788454,0.0013697668910026,0.0043090940453112
0.589336181640625,0.1565796414500102,0.0641595337647944,0.213351074257493,-0.0089158881455659,-0.0047629601322114,0.0179154500365257
0.609387939453125,-0.0004597629988566,0.0602726823940873,-0.0298503638625144,0.0171208903193473,0.0079206358641386,0.0150880366563797
0.62943994140625,-0.0513585409132763,0.0457351115409284,-0.0517336943686008,0.0253229662775993,0.0358934998512268,0.0051746615208685
0.6494921875,-0.1068172106217592,-0.0188803492978215,0.1135889697790145,0.011127857491374,0.0168850012123584,-0.0101598417386412
0.669544189453125,-0.0719310445491224,-0.007743453733623,0.2161842518568038,-0.0089853778481483,0.005287307780236,-0.0081037059426307
0.68959619140625,-0.0146826053470373,0.0052259179547429,0.076155603441596,-0.0173637047410011,-0.0147621389478445,-0.0079797785729169
0.709648193359375,-0.0133519047325476,0.0242989402804523,0.0084480948716402,-0.0018666763789951,-0.0126644456759095,-0.0073591079562902
0.7297001953125,-0.0159941263370215,0.0494604887396097,-0.0301128141909837,0.011266341432929,0.0147486142814159,-0.0122839789837598
0.749753173828125,-0.0119233697667717,0.0408741544410586,0.0736392367064952,0.0039941286668181,0.0109003111720085,-0.0101987812668085
0.76980517578125,0.0785989049404859,0.014258315520361,0.1256722062826156,-0.0039214859716594,-0.0127355130389332,-0.0018054286483675
0.789857177734375,-0.0037116044016554,0.0116994248177856,-0.0698117873728275,0.0130013907328248,-0.0030109416693449,-0.0095750112086534
0.8099091796875,-0.0458084690380841,0.0067700055915862,0.033428222349286,0.0168884731829166,0.0213103685528039,-0.0135186165571212
0.829961181640625,-0.0419347694098949,0.0056287266019731,0.0548036033332347,0.0259651094675064,0.0215593501925468,-0.0200406275689601
0.85001318359375,0.0612943535920232,-0.0177308870017528,0.2026584153294563,0.0059443032369017,-0.0029929929878562,-0.0097561972215771
0.870065185546875,0.053549109760113,-0.0074107146479189,0.2033066501051187,-0.0146100111305713,-0.0035667002666741,-0.0048414538614451
0.8901171875,-0.0137920862480998,-0.024094357619062,0.0359282224714756,-0.0111318491399288,0.002574629150331,-0.0148653462529182
0.91016943359375,-0.0376290715726092,-0.0722435445643961,0.0317629194855689,-0.0057711508125066,-0.0039673182182013,-0.0176417846232652
0.93022119140625,0.0162730894088745,-0.0264075299322605,-0.1646779365032911,0.0364835336804389,0.0073168398812413,-0.0053996527567505
0.950273193359375,0.0090123411582782,-0.0343748555496335,-0.0210287595033645,0.0391272529959678,0.0115126511082053,-0.0077501581981778
0.9703251953125,0.0396791359702125,0.0024525807838886,0.2006587659448385,0.0076747070997953,-0.0054641664028167,-0.0018269636202603
0.990377197265625,0.0454739033214747,0.0424379696916788,0.2616004336416721,-0.0265430249273777,-0.012358970940113,0.0099289305508136
1.010429443359375,0.0202349057119339,0.0318839155167341,0.1477390766620636,-0.0384760238230228,-0.0084160473197698,0.002157466020435
1.0304814453125,-0.0938676030797883,-0.0208638512652367,-0.0384381594657897,-0.0052965795621275,0.0188316628336906,-0.0079412013292312
1.050533203125,-0.0313292042434215,-0.0550111816693097,-0.1272089143306017,0.0054019214585423,0.0004651420749723,-0.0100175961852073
1.070585205078125,0.0415466834077611,-0.0204267750222235,-0.0459258848726749,0.0267308559268713,-0.0146976094692945,0.0165660232305526
1.09063818359375,-0.0121098322495818,-0.0251245043843984,0.0297790521919727,0.0114074796438217,-0.0031676846556365,-0.0015876218676567
1.110690185546875,0.0177043277883902,-0.0318571736402809,0.2130254955649375,-0.0071126744151115,-0.0053677218966186,-0.0013282299041748
1.1307421875,0.0591322801873087,0.0697297351125627,-0.0171036950141191,0.0197939276695251,0.0118030542507767,0.0160663947463035
1.150794189453125,0.0396709526637569,-0.0198933987978845,0.1071300028979778,0.0020946043077856,-0.0034129689447581,0.0101534593850374
1.17084619140625,-0.0172702837526798,0.0137807611364871,0.1741436839848756,-0.0147856380790472,-0.0045471931807696,0.0065824193879961
1.190898193359375,-0.038312085400708,-0.0064680269703269,0.1100450135618448,-0.0202447529882192,-0.0122610405087471,-0.0062666665762662
1.210950439453125,-0.0826526373106986,-0.0031240503046661,-0.0203226570606231,0.0008014780469238,0.0139551199972629,-0.013783972710371
1.23100244140625,-0.0399490754853934,-0.0170421010199934,0.130468208387494,-0.029775682836771,0.0020943116396665,-0.0136073660105466
1.251054443359375,0.0521850913979113,0.029436741560325,0.1356160926699638,-0.0184695851057767,0.002723844256252,-0.0040334919467568
1.271106201171875,0.0595825447054579,0.0477073614619672,-0.0213981773376464,-0.0191394556313753,0.0032985173165798,-0.0026901175733655
1.291157958984375,0.0634059754511341,0.0084922993395477,0.1617746162772178,-0.0315582267940044,-0.0203855447471141,-3.23401764035e-05
1.3112099609375,0.0005038578689098,0.007834273822233,-0.0492184966772794,-0.0105308862403035,0.0178769286721944,-0.0046801650896668
1.33126220703125,-0.0198026152418926,-0.0280420723315328,-0.0451174910992383,-0.000228903023526,0.0135102961212396,-0.0075622769072651
1.351314208984375,0.022900069800578,-0.0174594496492296,0.099380411684513,-0.0022582737728953,0.0191523842513561,-0.0031780248973518
1.3713662109375,0.0176124482538551,-0.0361636386625468,0.1193985328406095,-0.011246383190155,0.0096548739820718,-0.0037175465840846
1.391419189453125,0.0189040589669719,-0.0017081921573728,0.1047597666352987,-0.0111956931650638,0.0108305066823959,0.0011215889826416
1.411471435546875,-0.0117343500006943,-0.024495339635387,0.1169435409039258,-0.0312662720680236,0.0036239945329725,0.0006075981073081
1.4315234375,0.0004448211580514,-0.0220930277340114,0.1126017123073339,-0.0286672711372375,0.0080777127295732,0.0052179684862494
1.4515751953125,0.0330584391888231,-0.0018587065439671,-0.0698415979892015,-0.0039693545550107,0.0102446433156728,-0.0019918531179428
1.471627197265625,-0.0106943028958514,-0.0397306834943592,-0.0296592252045869,-0.0045270603150129,0.0198470577597618,-0.0026177950203418
1.49167919921875,0.0457603190474212,0.0014398235447704,-0.0252045838832855,-0.0007260031998157,0.0057199764996767,0.0048601157031953
1.5117314453125,-0.0567260227631777,-0.0568664541471749,0.0709124420911073,-0.0026463097892701,0.0082603637129068,-0.0064374124631285
1.531783203125,-0.0943876083659008,-0.063314095916599,0.0530640661895275,-0.0096727302297949,0.0030599366873502,-0.0177877880632877
1.551835205078125,-0.0843116930967196,-0.0708715255588293,0.1417278535485267,-0.0158645845949649,0.0062761609442532,-0.0242968015372753
1.57188720703125,0.0197529308812692,-0.0423068175926804,0.1226864684700965,-0.0246271602809429,0.0038581220433115,-0.0174147542566061
1.59193896484375,0.0728620417889207,-0.041095761302486,0.1135883852571248,-0.0180808398872613,-0.0015000822022557,-0.0126927206292748
1.611990966796875,0.0931913477860391,-0.0272459535177797,0.0088432316690683,-0.0164811834692955,-0.0022503689397126,-0.0048500932753086
1.632043212890625,0.0586822713974863,-0.0461382855143398,-0.1027677160352468,0.0021131839603185,0.002068365458399,-0.0059661297127604
1.65209619140625,0.0279905978726223,-0.0775561909545212,-0.0444283397912979,0.0099504245445132,-0.0064845290035009,0.00271035451442
1.672148193359375,0.045751587751694,-0.0454696655377745,0.0209042563408613,0.006799453869462,-0.0137187764048576,0.0111384019255638
1.6922001953125,0.0358097471909597,0.0048130993701517,0.165075411388278,0.0063690058887004,-0.0019552907906472,0.0083216344937682
1.71225244140625,-0.0193477841464802,-0.0072338237110525,0.0182101949512958,0.0032910055015236,0.0014058477245271,0.0007701842114329
1.732304443359375,-0.0049967123087495,-0.0090134736694395,-0.0137847797244787,0.0061501925811171,-0.0019009639509022,0.0057683293707668
1.7523564453125,-0.0253492165183648,-0.0206187173977494,0.0397661931991577,0.0078388946130871,0.0013261041603982,0.0014846720732748
1.772408203125,-0.05085037219543,-0.0150755501873791,0.0878477948009967,-0.0016752308001741,-0.0080276811495423,-0.0084380730986595
1.792460205078125,-0.0060798313703387,0.0180492322359234,0.1068769049197435,0.0068974578753113,0.0095239616930484,-0.0082853622734546
1.812512451171875,-0.0034271979697048,0.0395387411188334,-0.0484925204902887,0.0092026004567742,0.0203096494078636,-0.0091308215633034
1.832564453125,0.0271769799347966,-0.027046777683869,0.2059334914773702,-0.0105015961453318,-0.0114131262525916,-0.0036827928852289
1.852616455078125,0.0970832771906629,0.0360942266881465,0.0297398892253637,0.0109632071107625,0.0057023256085813,0.0043384204618632
1.87266845703125,0.0798784233570098,0.0061485126923769,0.0450923566579818,0.0036560741718858,0.0086091980338096,0.0116331446915864
1.892720458984375,0.0105039679555222,-0.0055194940738379,0.0755249043226242,0.0014310188125818,-0.0103124054148793,0.0148627180606126
1.9127724609375,-0.0324532398372888,0.0018915128350257,0.0611070873916149,-0.0056689465418457,-0.0039191045798361,-0.0010484319645911
1.93282568359375,-0.0183840171482414,0.0226784994717687,-0.0445896678328514,0.0010053948499262,-0.0127174668014049,0.0039394218474626
1.952877685546875,0.0357331017581745,0.0249230635281652,0.0711474198907613,0.0004151877947151,-0.0020200503058731,0.0059702764265239
1.972929443359375,-0.0531963873323053,0.0593297024555504,-0.1008995840758085,0.0204435549676418,0.0090170837938785,-0.0019632645417004
1.9929814453125,-0.0231330383062362,-0.0361469067234545,0.2734334947764873,-0.0205795988440513,-0.0130831971764564,-0.0035187404137104
2.013033447265625,0.0737413453740999,0.0705995767496526,0.1203203238606452,-0.0108328536152839,0.0063284658826887,0.0144747383892536
2.03308544921875,-0.0613326397757977,0.0358074456360191,-0.0767921477794647,0.0074459752067923,0.0206994619220495,0.0019317027181386
2.053137451171875,0.0459691760251298,-0.0095518913950771,0.0661246232926845,-0.0098700439557433,-0.001080559566617,0.0063203666359186
2.073189453125,-0.065351593093574,-0.0479154512546956,0.0978589012056589,-0.0222011879086494,-0.0244331732392311,-0.0065603740513324
2.093241455078125,-0.0216247526351362,0.0076712652802467,0.1088935054391622,-0.0176927223801612,0.0014674002304673,0.0020387070253491
2.113293212890625,-0.0130214672017842,0.0482308738794177,-0.0703185678511858,0.0062939133495092,0.0150142572820186,-0.0045222961343824
2.133345458984375,-0.0085351155679672,-0.0128443570692092,0.145962714639306,-0.0149038005620241,0.0076790754683315,-0.0012689037248492
2.1533974609375,0.0252803525332361,0.0239910433750599,0.0323182152807712,-0.0109502263367176,0.0033394140191376,0.001772238407284
2.173450439453125,0.0035844343580305,0.0463489325903356,-0.0303396086841821,0.002588567091152,-0.001687073148787,0.006854556966573
2.19350244140625,0.0436006567955017,0.0322867972292006,0.1350070208609104,-0.0092356018722057,0.0011119092814624,0.0037695509381592
2.2135546875,-0.0093845720041543,0.0277645705644041,-0.0602133534222841,-0.0027800993993878,0.0042784074321389,0.0026544854044914
2.2336064453125,-0.0188513058664277,-0.0258009423412382,0.0374321972936391,-0.0064330762252211,-0.0048373634926974,-0.0032545938156545
2.253658447265625,-0.0703889296736568,0.0139248457822948,-0.1211672960788011,0.0199881438165903,-0.0048746480606496,0.001026970334351
2.27371044921875,0.0014916998624801,0.0001308598380535,0.0845604436933994,0.0109000131487846,-0.0064756637439131,0.0056780278682708
2.29376220703125,0.0010752645486965,0.0285083746690303,0.1073240641653537,0.0101861180737614,0.0106926690787076,-0.0003642835654318
2.313814453125,-0.0082607556059956,0.0075115446738898,0.0823123725056648,0.003909851424396,0.0143745653331279,-0.0033017692621797
2.333866455078125,0.0638657384499907,0.006824366127327,0.1196574760377407,-0.010099608451128,-0.0077970516867935,0.0046210037544369
2.35391845703125,-0.0117849476767703,-0.0326996158137917,0.050722471499443,-0.0101084355264902,-0.0134670697152614,-0.0052341222763061
2.373970458984375,-0.0168656119419261,0.0124019470639526,-0.1001695162355899,0.0208483766764402,0.0092483554035425,-0.004147149156779
2.3940224609375,-0.0221120977606624,-0.0342451647553592,0.0355260714113712,0.0111497491598129,-0.0208173207938671,0.0094424085691571
2.414074462890625,0.0420792193818837,0.0127561673291027,0.0892681829929351,0.014483924023807,-0.0020865846890956,0.0031146220862865
2.434127685546875,0.0221529412277042,0.0021439532261341,0.0064607204467058,0.0067552626132965,-0.0151805505156517,-0.0050180051475763
2.4541796875,0.0109431996230036,0.0130373954232782,0.1603974827051162,-0.0052157407626509,-0.0075593045912683,-2.6263296604e-06
2.4742314453125,0.0064689768183976,0.0485409627418965,-0.0220791453391313,0.0099021177738904,0.0093185938894748,0.0071220323443412
2.494283203125,0.0440059496607631,0.0079284549117088,-0.0257020120114088,0.0226456355303525,0.0015199803747236,0.0153553485870361
2.51433544921875,-0.0279885520460084,-0.0194408327247947,0.0676215838521718,0.0070929606445133,-0.0070931781083345,-0.00033327518031
2.534387451171875,-0.0475333931345492,0.0363343921195715,0.1497936711043119,0.0023265976924449,-0.0095758503302931,0.0029252530075609
2.554439453125,-0.0006191548116505,0.0326925284858793,0.1657663162618875,-0.0147933568805456,-0.0055657769553363,0.0059522967785596
2.574491455078125,0.0204088740393519,0.0711643710255622,-0.0320610256493091,0.0057921824045479,0.0137824285775423,0.0099972207099199
2.59454345703125,0.0229215875126421,0.0334445889621973,-0.0492079752832651,0.011413506232202,0.0046822521835565,0.0052597629837691
2.61459521484375,-0.025911088184826,0.0160440298933535,0.0087310034662485,0.0164527129381895,-0.0065910937264561,0.0045458814129233
2.6346474609375,-0.0283972424447536,-0.0092835958477109,0.1664940460145473,-0.0051483670249581,-0.012373044155538,0.004721307195723
2.654699462890625,-0.0125976888317614,0.0048040392808616,0.0587502951323986,0.001359166111797,-0.0039145797491073,-0.0019332657102495
2.67475146484375,-0.0313076865313574,-0.0243172796547412,-0.0433148255914449,0.0152867045253515,0.009953374043107,0.0040068970993161
2.694803466796875,0.0414023065010085,0.0008659691795706,0.1009463458269834,-0.0027436141390353,-0.0052767479792237,0.006256943102926
2.7148564453125,-0.0309145955605432,-0.0211606422547251,0.1822510025948286,-0.0139452815055847,-0.0207280367612838,-0.0011905445717275
2.734908447265625,-0.042133726048097,0.0018161095112562,0.0165320326060056,0.0019333525560796,-0.0069040935486555,-0.0102106733247637
2.7549599609375,-0.0178340551152825,0.0225309076946228,-0.2085170782297849,0.0253134332597255,0.0061207399703562,-0.0044318409636616
2.77501171875,0.0100589641343802,-0.0372092021927237,0.0321095409661531,0.0140290418639779,-0.0193856414407491,0.0002208878286182
2.795063720703125,-0.037358693666011,-0.0084356737814843,0.1041372508227825,0.0107310153543949,-0.0146611966192722,-0.0088007012382149
2.81511572265625,-0.0208055452067404,0.0320507234510034,0.1132885255277156,0.0027206554077565,0.0055992598645389,-0.0076018613763153
2.835167724609375,0.0307790960799902,0.0237911368887871,0.0793763190537691,-0.001290313899517,-0.0016996306367218,-0.0019176851492375
2.8552197265625,0.0975832260694354,0.0349475408710539,0.11667466083467,-0.0064443838782608,-0.0108324568718671,0.0145142329856753
2.875271728515625,0.030253282107599,0.0369053238753229,0.0547048191338777,-0.008675611577928,-0.0094041936099529,0.0094034885987639
2.895323974609375,-0.0216545267188921,-0.0054878568265587,0.0454565137952566,-0.0055523421615362,-0.015370512381196,0.0012681414373219
2.9153759765625,-0.1018612321821972,-0.0788280375212431,0.0446440283685922,-0.0058264890685677,0.0029156683012843,-0.0140912048518657
2.935427734375,-0.0113874362591654,-0.0749603292424231,-0.1092494792699813,0.0155565505847334,-0.0044402098283171,-0.006759999319911
2.955479736328125,0.0458529657669365,-0.0776497144568711,0.059273442223668,0.0156035898253321,-0.0056412951089441,-0.0086520425975322
2.97553173828125,0.0286510345427319,-0.0048529199238866,-0.0183592480331659,0.0201893206685781,-0.0061951600946486,-0.0010339529253542
2.9955849609375,0.0848205559343099,0.0013129092294722,0.2115221052646637,-0.0069920225068926,-0.0145622007548809,-0.0015543568879365
3.01563671875,0.0192658414840698,0.0285715030331164,0.0458195018887519,0.0121813546866178,0.00080640707165,-0.0044628698378801
3.035688720703125,0.0485796507844701,-0.0006904664821922,0.0561491727232933,0.0076706046238541,0.0033235857263207,0.0053706634789705
3.05574072265625,0.0515676901519298,0.0120334060125052,0.0692220047861337,0.002151469932869,-0.0092944717034697,0.0147953247651457
3.075792724609375,0.0288956204209476,-0.0378243384163826,0.0626876345813274,-0.0050276229158043,-0.0162864848971366,0.0151141434907913
3.095844970703125,-0.035220329930447,-0.047287601679936,0.0072124155968427,0.0085209254175424,-0.0107791032642126,-0.0001190642360597
3.115896728515625,-0.1412542081547901,-0.0535767649520188,-0.0413718748301267,0.0177984293550252,0.0055626183748245,-0.0150817083194851
3.13594873046875,0.0287029473930597,0.0029421909317374,0.0329822321474552,0.0191435106098651,-0.0035536121577024,-0.0019687779713422
3.156000732421875,0.069277205572091,0.0329590704675763,0.0799170018017292,0.0095738852396607,-0.0118971429765224,0.0021807877346873
3.176052734375,0.1248563233224675,0.0382953899942338,0.141277771693468,8.80390871316e-05,-0.0224826708436012,0.0096317771822214
3.19610498046875,0.0669315192287787,0.066859878764674,0.0750900200366973,0.0045440490357577,-0.0049767643213272,0.0195874366909265
3.216156982421875,-0.0056947775755077,0.016360621561855,-0.0479945078402757,0.0094249146059155,-0.0044581331312656,0.0129094645380973
3.236208984375,-0.0549349746279418,-0.0585956890925765,0.1403735163301229,0.0001755168195813,-0.0039836410433053,0.0051275971345603
3.2562607421875,-0.0680254154127091,-0.0586988572061061,0.0030973814934492,0.0132498368620872,0.0077166212722659,-0.0023247110657393
3.276312744140625,0.0205799928225576,0.0100341950193047,0.0341121129602193,0.0156502481549978,0.0001397342421114,0.0056017711758613
3.29636474609375,0.0465822664221748,0.0045833822675049,0.1332680682390928,0.0015322889667004,-0.0127298738807439,0.0073802671395242
3.316417724609375,-0.0189896548911929,0.0231603647045791,0.1354594408035278,-0.0073718093335628,0.0049177897162735,0.0027429810725152
3.3364697265625,0.0962344418089836,0.1081821422994136,-0.1283838033288717,0.0266939215362072,0.0253331270068883,0.0240728855133056
3.356521728515625,0.0328722324343398,-0.023490619572252,0.0243675485372543,0.0070578111335635,0.0171917304396629,0.0230258218944072
3.37657373046875,0.0441166434936225,-0.0040337124954909,0.1385936471760273,-0.0022200187668204,-0.0040364791639149,0.0267717316746711
3.3966259765625,-0.1055551182640716,-0.038635435603559,0.1508855579942464,-0.0199193879961967,-0.0010750438086688,0.0080094961449503
3.416677978515625,-0.1433568064572289,-0.0326638869132846,0.0314168825268745,-0.0043728053569793,0.0109514780342578,-0.0020835394971072
3.436729736328125,-0.0456053111487999,0.0097620270144194,-0.2112766060709953,0.0148819256573915,0.0243108496069908,-0.0032593645155429
3.45678173828125,0.0408842374436557,-0.0049052346330136,0.0489028548568487,0.0111660212278366,0.0068150223232805,-0.0009256550110876
3.476833740234375,0.0474819186756387,0.0028487404946237,0.0496411060035228,0.016132902354002,-0.0067580053582787,0.0073455143719911
3.496885986328125,0.0950366103265434,0.0036232319984585,0.1990647747516632,0.0013692991342395,-0.0153750013560056,0.0128879686817526
3.51693798828125,-0.0593253916066139,-0.0099148064233362,0.0157353292703628,0.0190124697983264,0.0120831793174147,0.0026718359440565
3.536989990234375,-0.0312533990608528,-0.0311353621717542,0.0795019912600517,0.0001683307345956,0.000230086967349,-0.0082739805802702
3.5570419921875,-0.0163123985059559,-0.0482586386691778,0.1499766264557838,-0.0084346905350685,-0.0037811188958585,-0.0065841525793075
3.577093994140625,0.0294050312478095,0.0148045512262731,-0.0358615869760513,0.0018928812351077,-0.0017528571188449,0.0004278188571333
3.597145751953125,0.0353001902336254,0.0245144827272742,0.0471720855414867,0.0052013080567121,-0.0010151965543627,0.0115271490067243
3.61719775390625,0.0025129326689988,0.0025889935798943,0.0999146646916866,-0.0015688081039115,-0.0117188952863216,-0.0027861623093485
3.637249755859375,-0.0611374459972605,-0.0177014417115598,0.076890347456932,-0.0011944267898797,0.0088981110602617,-0.0113240256905555
3.657302734375,0.0031081220831722,-0.0384461235765367,0.1316746615678072,-0.0211225897073745,-0.0081694805994629,-0.009294981136918
3.677354736328125,0.0250186328571289,-0.0135278092887252,-0.0323947876483202,0.0074910214170813,0.0133343692868947,-0.0003912742249667
3.697406982421875,0.0391945307910442,0.0033837241541594,-0.1805149725824594,0.0240326300263404,0.0063038505613803,-0.0024034827947616
3.717458984375,0.03352455886323,0.0165371471725404,0.0569973139852285,0.0148371886461973,-0.0063591031357645,0.0002245642244815
3.737510986328125,-0.0234357475798577,0.0348859468769282,0.0910538973659276,0.0126010999083518,0.0045422841794788,-0.0009494917467236
3.7575634765625,-0.0448077310303226,-0.0215684924032539,0.1953092216104268,-0.0055354875512421,0.0059157558716833,-0.0003771986812353
3.77761572265625,-0.0059005658132955,-0.0040456951942294,0.1661842494130134,-0.015870064496994,0.0091539323329925,0.0018600458279252
3.797667236328125,0.0179866883937269,-0.0182416860681027,-0.0623486118853092,0.0138055756688117,0.0249156504869461,0.0054855258204042
3.81771923828125,0.0423232938034459,-0.0460279570076614,-0.0744090520352125,0.0111675970256328,0.0111337630078196,-0.0015271701849997
3.837771240234375,0.0202327137548476,-0.0061934478126466,0.0377115987569093,0.012935172766447,-0.0027401756960898,0.0031633079051971
3.8578232421875,0.0046838104346767,0.0223409380804747,0.1240571723014116,0.0002676444128155,0.0063789524137973,0.0059716259129345
3.877875244140625,-0.0292248523753136,0.0149384798042476,0.1046726728737354,-0.0079526398330926,0.0047540804371237,0.0069614094682037
3.897927490234375,0.0338938305670395,0.0576976442743092,0.0278571442186832,0.0017907829023897,0.0052792211063206,0.01182228513062
3.9179794921875,-0.0169143464544788,0.0140934803474694,-0.049099838733673,0.0054115485399961,0.0066531412303447,0.0032074945047497
3.93803125,-0.0544674667140468,-0.0116682990271598,0.0789969643473625,-0.0112743200734257,-0.0116765946149826,-0.0040436289273202
3.958083251953125,-0.0831125829726457,-0.0067765083976089,0.1664402700006961,-0.019374581053853,-0.0068579879589378,-0.0142220007255673
3.97813525390625,-0.0774033384803682,0.038920316959545,0.0004530044645071,0.0010668456088751,0.0136281186714768,-0.0088480105623602
3.9981875,0.037114692309685,0.0437235525228083,-0.0053448681592941,-0.000380243640393,0.004108726978302,-0.0040580695495009
4.018239501953125,0.0798737106492742,0.0281618262536823,0.1156108309954404,-0.0090127456933259,-0.0055704661644995,0.0075112208724021
4.03829150390625,0.1134491594495251,0.0302303761560469,0.0720002373278141,-0.0109257083386182,-0.0078194634988904,0.0184819027781486
4.05834423828125,0.0354176791334524,0.0031566374000161,-0.0098702366292476,0.0024185804650187,-0.0041325418278574,0.013399314135313
4.078396240234375,-0.0811846836499869,-0.0396085184194147,0.0588677840322256,-0.0054601924493908,0.005052279215306,0.0043693738989531
4.098448486328125,-0.0890191036026924,-0.0162249394182115,0.0296902048647403,-0.001264878665097,0.0085338931530714,-0.0033438201062381
4.118500244140625,-0.0357583457972854,-0.0105116032727062,0.0823830996543169,-0.0083273202180862,0.0050269686616957,-0.0013115433976054
4.13855224609375,0.0183664084263145,0.0150341221984475,-0.0148316584289073,0.0057912436313927,-0.0017500123940408,-0.0013896322343498
4.158604248046875,0.0192790297592058,0.0033908114820718,0.0381891531407833,0.0036901896819472,0.0043336735107004,-0.0015046044718474
4.17865625,0.0026337825696915,0.0049440322734415,0.0138414783477783,0.0100607192143797,0.008857287466526,-0.0031224014237523
4.19870849609375,-0.0049662806378677,-0.0490788690108805,0.0572206013470888,0.0049566179513931,0.0050364024937152,-0.0125472489744424
4.218760498046875,0.0354097880879417,-0.0399567473351955,0.0675648852288723,0.0011837128549814,0.0103637147694826,-0.0119293760508298
4.2388125,0.000158734225668,-0.0421378177013248,0.070629533496499,0.0008950126357376,0.0116886822506785,-0.014761327765882
4.258864501953125,0.0326192805865779,-0.0127057523161172,0.0970908394426107,-0.0083607090637087,-0.0005004182457923,-0.0067099062725901
4.278916259765625,0.0678716130904853,-0.005938523203507,0.1068044242054224,-0.0073762061074376,-0.0055966516956686,0.0007051373831927
4.298968505859375,0.0626460969945415,0.0462066745754331,-0.0422141708731651,-0.0013566721463575,0.0093951979652047,0.0082736108452081
4.3190205078125,0.0382984222015365,0.0084084935136139,-0.0214244808226823,0.0067837042734026,0.0136878034099936,0.0047200568951666
4.339072509765625,-0.0092285777248442,0.0001242109015583,0.0767354491561651,-0.0080179283395409,-0.0030703826341778,-0.0020510989706963
4.35912451171875,-0.0549388836180791,-0.018331556308642,0.1693541116207838,-0.0207506101578474,-0.0067819072864949,-0.0016706322785466
4.379176513671875,0.0331396146662533,-0.0032505992937833,-0.0002799859851598,-0.005285651423037,-0.0058162757195532,-0.0011368622072041
4.399228271484375,0.0432653238939121,-0.0094840137906372,-0.0007984569013118,-0.0034457859583199,-0.0009706099517643,0.0008337977342307
4.4192802734375,0.0432618532951921,-0.0089837361183017,0.0486930114984512,-0.0100820008665323,-0.0044164434075355,0.0079263895750045
4.439332275390625,0.0093616295199841,-0.0187575997009873,0.0232867675632238,0.0017446558922529,-0.0024599721655249,0.0022521638311445
4.45938427734375,-0.022048531005159,-0.0535595946215093,0.0077431614726781,0.0083933910354971,-0.0005539017729461,0.0008928067982196
4.479436279296875,0.0582872807305306,-0.0283454391922801,0.108653266942501,-0.0002906175795942,-0.0038850686978548,0.0147904036566615
4.49948828125,0.1090603864386677,-0.0295726428996771,0.1500835939615964,-0.0154535686597228,-0.0198921598494052,0.0150933796539902
4.51954052734375,-0.005356266336143,-0.0278602860238403,0.0639659839540719,-0.0158438179641962,-0.0071168979629874,0.0073820427060127
4.539592529296875,-0.0172825952449813,-0.0177441848747432,-0.1511374869287013,0.0134580321609973,-3.57711687684e-05,0.0130230709910392
4.5596455078125,-0.0029788696803152,-0.0332518428690731,-0.0688403119921684,0.0223270915448665,-0.0093712247908115,0.0125988330692052
4.579697509765625,-0.0402803532663732,-0.0356326005257666,0.1091243915855884,0.012252889573574,-0.0098252184689044,0.0074432012625038
4.599749267578125,0.0083057637915015,0.0034542321071028,0.1662280885547399,-0.0059144869446754,-0.0039927437901496,0.0050046388059854
4.61980126953125,-0.053107576537691,-0.0113004886280745,0.1759317364454269,-0.025320503860712,-0.0142839178442955,-0.0020382436923682
4.639853271484375,0.0026433541156351,0.0089708766367286,0.0281137493282556,-0.0071835871785879,-0.0101774726063013,0.0066269193775951
4.6599052734375,0.0354028468905016,-0.0056678165033459,-0.0213303727984428,0.001117386855185,-0.0080722393468022,0.0094920797273516
4.679957275390625,-0.0168311982156708,-0.0283250539913773,-0.0084586162656545,0.0051084137521684,-0.0135578624904155,0.0039364052936434
4.70000927734375,-0.0224351557025685,-0.0092162296999245,0.0587812747925519,0.006440264172852,-0.0091758221387863,0.004444517660886
4.7200615234375,-0.0354174599377438,-2.1846505627e-05,0.1362374394387006,-0.0112974625080823,-0.0055463486351072,0.0058048972859978
4.740113525390625,0.0111825978694483,0.002684197582677,0.0810386993080377,-0.0039601689204573,-0.002728161169216,0.0100911818444728
4.76016552734375,-0.0002070668794214,0.0022208909198641,0.0393640421390533,-0.0030334976036101,-0.0141101228073239,0.0064044692553579
4.780217529296875,0.0143562594695016,0.0149098382316529,0.0261965175300836,-0.0031247490551322,0.0044128824956715,0.0094587355852127
4.80026953125,0.0187625681370496,0.0109110509190708,-0.0148071085095405,0.0019564854446798,-0.0051315110176801,0.0157840494066476
4.820321533203125,-0.0099152813473716,-0.0048155105229467,-0.0224801273554563,0.0020073519553989,-0.0140799991786479,0.0089895268902182
4.840373779296875,-0.043847544228658,-0.0009596388123929,0.1177513501554727,-0.0033828953746706,-0.0144969318062067,0.0049170576967298
4.86042578125,-0.0792534963916987,-0.0082221040960401,0.0183241767197847,0.0074980817735195,0.0072203432209789,-0.008398612961173
4.880477783203125,-0.0553799053838476,-0.0183585173808038,0.0976139865338802,-0.003356872824952,-0.0032332490663975,-0.0065563321113586
4.90052978515625,0.0076538757540285,-0.0010865531276911,0.0476531470566988,0.0023136963136494,-0.0020529320463538,-0.0027753114700317
4.92058154296875,0.0438276339517906,0.0258247616082429,0.1012397758156061,-0.0076312646269798,0.0069671594537794,0.0059816357679665
4.940633544921875,0.0638681496027857,0.0166055362336337,0.050897828066349,-0.0025936064776033,-0.0066081993281841,0.0041892379522323
4.960685546875,-0.0504259727708995,-0.0378767261907458,0.0087520462542772,-0.0013530156575143,-0.0016862978227436,-0.0072504645213484
4.980737548828125,-0.0309218655515462,-0.0198878458399325,-0.0091623806208372,0.009936723858118,6.71362504363e-05,-0.0175995118916034
5.00078955078125,-0.0229526402380317,-0.0279512522429227,0.1123258179754018,-0.0119729163125157,-0.0001818342134356,-0.0129431840032339
5.020841552734375,0.0526714501427486,0.0251775497458875,0.0937315921425819,-0.007890710607171,0.0105945970863103,-0.0027655663434416
5.0408935546875,0.0385178736384958,0.0188411132659763,0.1224742870241403,-0.0175691917538642,0.0059078629128634,-0.0024600117467343
5.060945556640625,0.0505916481940075,0.0176897512737661,0.0105383451491594,-0.0107604563236236,-0.005462241359055,-0.0004678317345678
5.08099755859375,-0.0607507847672328,-0.0114650315400212,-0.0335579862087965,-0.0032323363702744,0.0574079975485801,-0.0060877511277794
5.101049560546875,-0.0274876533191651,0.0756882051255554,-0.2099421425968408,0.0133735705167055,0.0255981236696243,-0.0036268506664782
5.1211015625,0.0533969148730859,0.0286602772951126,0.19332652336061,0.0014975415542721,0.0001498381607234,-0.0008268258534371
5.141153564453125,-0.045593218852207,-0.0216507638592272,0.116174894618988,-0.0168566852807998,0.0018763202242553,-0.012667560018599
5.16120556640625,-0.0434034902555868,-0.0094878862481564,0.1520563553392887,-0.0247947871685028,0.010198138654232,-0.0147064039483666
5.1812578125,-0.0008600874280557,0.0074127604745328,0.1128518876761198,-0.0278413295745849,0.0274106301367282,-0.0008658743463456
5.201309814453125,0.0326242490226402,0.0129467945303767,-0.0146919576972723,-0.0166565142571926,0.0168800428509712,-0.0083887949585914
5.221361572265625,0.0804874221008271,0.006703735422343,0.0482967056572437,-0.0173484794795513,0.0074288584291934,0.0039752377197146
5.24141357421875,0.0573993554474785,-0.0304732450012117,0.0196264914900064,-0.0155323846265673,-0.0093141291290521,0.0092820413410663
5.261465576171875,0.0034348332868888,-0.044490079915896,-0.0167500592708587,-0.0037622917443513,0.0020826463587582,0.0045967968180775
5.281517578125,-0.009193871737644,-0.0514379993576556,-0.0869113907337188,0.0131855374202132,0.0161953438073396,0.0013956590555608
5.301569580078125,-0.019757716654241,-0.0176143479499965,0.0182131175607442,0.0108201308175921,0.0115432878956198,-0.0019234928768128
5.32162158203125,-0.039056181766279,-0.0061879679199308,0.2546177351474761,-0.0169498957693576,-0.0020342653151601,-0.0056362822651863
5.341673583984375,-0.014537315124832,0.0095236882138997,0.1661035853922367,-0.0299870427697896,-0.0032967564184218,-0.0091778486967086
5.361725341796875,-0.0207885940719395,-0.0014431114803999,0.0399561628133058,-0.0174001865088939,0.0044646263122558,-0.0020678448490798
5.381777587890625,0.0513159438805654,0.0274312469568103,-0.1212409458369016,0.0021037810947746,0.015153357759118,0.0062040369957685
5.40183056640625,0.0039230551952496,0.0222409848373383,-0.0889817672669887,0.021573532372713,0.0229545161128044,0.0091069601476192
5.421881591796875,0.0423187272261828,0.0208805101390928,0.0683148268133401,0.0093259895220398,0.0131535585969686,0.0130737340077757
5.4419345703125,0.0064176850225776,0.0135882342390716,0.1875789196193218,-0.0116631686687469,-0.0040635541081428,0.0105245010927319
5.461986572265625,-0.0360540042756125,-0.0098116383098065,0.1794149023860692,-0.0228794272989034,-0.002538475440815,0.0076755466870963
5.482038818359375,-0.0088013652887195,0.0218383953858166,-0.0328086291462183,-0.0052792239002883,0.0077693690545856,0.0101361535489559
5.5020908203125,-0.0098111633857712,0.0218494282364845,-0.120939917063713,0.0126551119610667,0.0082049537450075,0.0065528298728168
5.522142578125,-0.0334435295162722,-0.026729674558714,-0.0081318685293197,0.0049306405708193,-0.0107022477313876,-0.0023614112287759
5.5421943359375,-0.0443463605962693,0.001751227581501,0.102586514249444,-0.0045441100373864,-0.0171740986406803,-0.002831102348864
5.562246337890625,-0.0438826886072754,0.0186804428115487,0.094253570190072,-0.0078152529895305,-0.001680864021182,-0.0042482428252696
5.582298583984375,-0.0005944222291931,0.0156528386186808,0.008776596173644,-0.0007139518857002,0.0016121063381433,-0.0083992388099432
5.6023505859375,0.0033567265493795,-0.0077387044932693,0.067626844549179,-0.0047669988125562,-0.0045027495361864,-0.0095002623274922
5.622402587890625,0.011682254487276,-0.0167128690656274,0.0553320111215114,-0.0042136656120419,-0.007004608400166,-0.0105884075164794
5.64245458984375,-0.0051652372760698,-0.0376677596151828,0.0071843585461378,-0.0063693318516016,-0.0212920010089874,-0.0098532261326909
5.662506591796875,0.0568681346476078,0.0170719847016036,0.0191962833791971,0.0059062326326966,-0.0086221611127257,0.0024657938629388
5.682558349609375,0.0648201530979946,0.0293835500683635,-0.0019505495458841,0.009151741862297,0.0068483687937259,0.0084830168634653
5.702610595703125,0.0358925666362047,0.0256613146748393,0.0863952579051256,0.0020321423653513,0.0023392913863062,0.0092794550582766
5.72266259765625,0.0081849504234269,0.007513005978614,0.1263940908163786,-0.0064861685968935,-0.0148616414517164,-0.0001558987423777
5.742714599609375,-0.0277391438622027,0.007151186928898,0.0690782124012708,-0.003963341936469,-0.007751845754683,-0.007702019996941
5.7627666015625,-0.008064392783679,0.0094591716103255,-0.0395633641034364,0.0042904801666736,-0.0028715527150779,-0.0052799563854932
5.782818603515625,-0.0013415508020669,-0.0068422671101987,-0.0392903923809528,0.0178608186542987,-0.0015308540314435,-0.0032232101075351
5.802870849609375,0.034161541592516,0.0219848181191831,0.0560603253960609,0.0126682939007878,0.0027318680658936,-0.0018720708321779
5.8229228515625,0.0098788217945024,0.0539593345288187,0.1462584827154874,-0.0003899892326444,0.0029456471092998,-0.0125031266361474
5.842974609375,0.0043783612146973,0.0257647019840776,0.1463929227501154,-0.0127212861552834,-0.0148173123598098,-0.011896202340722
5.863026611328125,0.0606603665374219,0.0293473097112029,-0.0383539883136749,0.0062237102538347,-0.0062219453975558,-0.0017791264690458
5.883078369140625,0.0489422735517844,0.0250523889962583,-0.1347948394149541,0.016905803233385,0.0075511764734983,0.0034419195726513
5.90313037109375,0.0245700488394126,-0.0066880994617938,0.0318114348024129,0.022581610828638,0.0054001077078282,0.0007635196670889
5.9231826171875,0.003215856773965,0.0113178050890564,0.0743587831526994,0.0204112362116575,-0.0044679753482341,0.0002635130658745
5.943234619140625,-0.0042644159788265,0.0323893808208405,0.1997030726552009,-0.0046834563836455,-0.0062612011097371,-0.0004678266122937
5.96328662109375,-0.002949680118449,0.0295957315143197,0.168628135433793,-0.0170831251889467,-0.0045220097526907,-0.0026500564999878
5.98333837890625,0.0257539248617365,0.0639731443472206,-0.0281008898466825,-0.0006325799040496,0.007342092692852,0.0065671494230628
6.003390380859375,0.0332260508406907,-0.0030846681423485,-0.0947954219818115,0.0154518010094761,-0.0014318926259875,0.0079939840361475
6.023442626953125,0.0073360054438933,-0.0089892160110175,-0.0131458972990512,0.021648820489645,0.0013994555920362,0.0134554263204336
6.04349462890625,-0.0037250484051182,-0.0031512305725365,0.0713461573332548,0.0084377527236938,-0.0031061877962201,0.0047407252714037
6.063546630859375,-0.062393620070815,-0.0144627520512789,0.2164285820066928,-0.0199217200279235,-0.0075489468872547,-0.000387439969927
6.0835986328125,-0.0151955598378553,0.0274688755534589,0.060523150023818,-0.0058681303635239,0.0118504306301474,-0.0020677237771451
6.103650634765625,-0.0240605649473145,0.0241059019263833,-0.119373398399353,0.0191441308706998,0.0153778092935681,-0.0013989391736686
6.123702880859375,0.0255864593403413,0.0268355460859835,-0.0313280351996421,0.0232495702803134,0.0067104380577802,0.0129976700991392
6.143754638671875,0.0343443142808973,0.0248876999538391,0.0209685537487268,0.0297926943749189,-0.0038214914966374,0.0096564525738358
6.163806640625,-0.0399719083717092,0.0090756521854549,0.1999170076668262,0.0011096417438238,-0.0039838245138525,0.0076663070358335
6.183858642578125,-0.0198453218724578,0.0294877410952001,0.2193529450207948,-0.0171358566731214,-0.0097995959222316,0.0142314564436674
6.20391064453125,-0.0212574171600863,0.025796704557538,-0.0059907648473978,0.0023078832309693,0.006345285102725,0.0089653208851814
6.22396240234375,-0.0193480764074251,-0.0182365715015679,-0.0323830972105264,0.0046143382787704,-0.0049040475860238,0.0040668677538633
6.2440146484375,-0.0197945415332913,0.0133163584951311,-0.0899661021292209,0.0284415204077959,-0.0091151120141148,0.0019144597463309
6.264066650390625,-0.0595774301389232,0.0085084467567503,0.1144762740075588,0.0021785628050565,-0.0146924816071987,-0.0018984120106324
6.284118408203125,-0.020864654982835,0.0425647378765046,0.1581324603825807,-0.0017823568778112,-0.0090146223083138,0.0051738787442445
6.30417041015625,0.0237944248244166,0.0471545498847961,-0.0094949735760688,0.009744232520461,-0.0016827406361699,0.0012914040125906
6.324222412109375,-0.024082922909595,-0.0242164496287703,-0.0066173723131418,0.0120304524898529,-0.0134806111454963,-0.0014222087338566
6.344274658203125,-0.030146168471314,-0.0473177045572549,0.182028299754858,-0.0103153334930539,-0.0234861075878143,-0.0021828073076903
6.36432666015625,-0.017427702804096,-0.0238951087199151,0.0585217470735311,0.0035133438650518,-0.008143164217472,-0.0022829896770417
6.384378662109375,0.0224305891253054,0.0041460868287831,-0.0580681580871343,0.0133217554539442,-0.002864125650376,0.0016076569445431
6.4044306640625,0.045871159010753,0.0069204469129443,0.0689145462721586,0.0066895922645926,-0.0112311653792858,0.0092569012194871
6.424482666015625,0.0273773613451048,0.0454134783711284,0.0681926617383957,0.0050790919922292,-0.0085382163524627,0.012692455202341
6.444534423828125,-0.0427033426295965,0.0194043001066893,0.0999988358438015,-0.0111064407974481,-0.0089734569191932,0.0025294539518654
6.464586669921875,0.027652598089911,0.0342375659707933,0.0320224472045898,0.0052285585552453,0.0010696086101233,0.0139710521325469
6.484638671875,0.0323898557448759,0.002051014245674,-0.080989599469304,0.022564947605133,0.0135509269312024,0.0161707866936922
6.504690673828125,-0.0074150254968553,-0.0448337787870317,0.0865191765457391,0.0126138515770435,-0.0004044845700263,0.0120934639126062
6.52474267578125,-0.1122047123463824,-0.1024850266363471,0.1997510034501552,-0.0150714498013257,-0.0081501938402652,-0.0119276689365506
6.544794677734375,-0.0774546668088063,-0.0783086167570203,0.1149807163983583,-0.0080510955303907,-0.0164057984948158,-0.0132871959358453
6.5648466796875,0.1801668167319148,-0.051398617195338,-0.0019119711011648,-0.0030512628145515,0.0237951017916202,-0.0011581482831388
6.584898681640625,0.1317540834795683,0.0163525843858718,-0.3113046680092811,0.049542348831892,0.0188918430358171,0.0158422365784645
6.604950439453125,0.1636397525619715,0.0387281553883105,0.0740308663725853,0.0366626568138599,-6.63483515381e-05,0.0296181514859199
6.62500244140625,-0.040471236195974,-0.0340183702621608,0.1500385857760906,0.0156153514981269,0.0033362135291099,0.0100024137645959
6.645054443359375,-0.127533068251051,-0.0265498610123991,0.2618704827547073,-0.0137784797698259,0.0108675118535757,-0.0034891944378614
6.6651064453125,-0.1101618083419278,-0.07603153867051,0.2391074468046426,-0.0243294294923543,0.0152930999174714,-0.0168008636683225
6.68515869140625,-0.0341544177319854,-0.0330027634788304,-0.0616904402375221,0.0011091558262705,0.0260107554495334,-0.015216814354062
6.705210693359375,0.0608285627111792,-0.014116568962112,-0.099986560884118,0.0074238162487745,0.0031798519194126,-0.0105607099831104
6.7252626953125,0.097165110255219,0.0182751499462872,0.030727731218934,0.0097864866256713,0.0007704505696892,0.0026454492472112
6.745314453125,0.0589289761675521,0.0102769907992333,0.0428928007870912,0.0083917938172817,0.017122333869338,0.0037810034118592
6.76536572265625,0.0441396590430289,0.0127549252200871,0.12269874342978,0.0027125312481075,0.013924054801464,0.0118575971573591
6.785417724609375,-0.0136139166695997,-0.0047759091649204,0.1523386794120073,-0.0093203298747539,0.0058325659483671,0.0030993949621915
6.805469970703125,-0.0716450672145932,-0.0102853933013975,0.1067161614000797,-0.0223673451691865,0.0143982507288455,-0.0067447554320096
6.82552197265625,-0.0712893125794827,-0.0340076296724379,0.1649824724078178,-0.0451536402106285,-0.0007114857435226,-0.0148723851889371
6.845573974609375,0.0088482731703668,0.0151676123850047,0.0481669417977333,-0.0223331805318593,0.0155779253691434,0.0009738430380821
6.8656259765625,0.0674876918068155,0.0236984171040356,-0.1129647004008293,-0.0031319982372224,0.0185546725988388,0.0099295508116483
6.885677734375,0.0797669258065521,-0.0341484263826161,0.0145107559114694,-0.0038607593160122,0.0036459574475884,0.0157301407307386
6.90572998046875,0.0007614128265529,-0.0271034032419323,0.0189268187880516,-0.0066589843481779,0.0094978623092174,0.009340576827526
6.925781982421875,0.0172243987843394,-0.0056927317488938,0.0844546452313661,-0.0064012808725237,0.0015636589378118,0.0104338992387056
6.945833984375,-0.0310506064977496,-0.0253298176981508,0.0142857149839401,0.0006009060889482,0.005886030383408,0.0042156735435128
6.9658857421875,-0.0487297633122652,-0.0506638001147657,0.0044476270586252,-0.0007103534881025,0.0046367081813514,-0.0056186406873166
6.98593701171875,-0.023069544615969,-0.033004005587846,0.028116671937704,0.0062328777275979,0.0067217629402875,-0.0040994547307491
7.00598876953125,-0.0137693994922563,-0.0107945849325507,-0.0416881011724472,0.0141820479184389,0.0036929561756551,-0.0103409755975008
7.026040771484375,-0.0279583761034533,-0.0112939127568155,0.1275952832996845,-0.0014004454715177,-0.0029498538933694,-0.0139854876324534
7.046093017578125,-0.0094853654975071,0.0284867473591119,0.0464151296943426,0.0019058641046285,0.0081056542694568,-0.0099691562354564
7.066144775390625,0.0076321023136377,0.0121858931604772,0.0362047013252973,0.0070339706726372,0.0081710070371627,-0.0126834083348512
7.08619677734375,0.0009030863195657,-0.0355037134490907,0.1281137542158365,-0.0042712613940238,-0.0049242340028285,-0.0151985809206962
7.106248779296875,-0.0095596363101154,-0.029845687687397,0.0236333890438079,0.0024180526379495,-0.0050123375840485,-0.016480041667819
7.12630078125,0.0492888950323686,-0.024768092162162,-0.0016308160722255,0.0106693431735038,0.0057183634489774,-0.0041020065546035
7.146352783203125,0.0275664541764184,0.0067775313109159,0.0171983875602483,0.0075332000851631,0.0016021085903048,-0.0043696356005966
7.16640478515625,0.0076622782561928,-0.02234276471138,0.1919897217988967,-0.010575296357274,-0.0052121360786259,-0.0094424188137054
7.186456787109375,-0.0304839490583166,-0.0035001901406794,0.0774637634307146,-0.0106970174238085,-0.003475441597402,-0.013314601033926
7.2065087890625,-0.0394621322186663,-0.0180832806359976,0.1081014782786369,-0.017817435786128,-0.0002126418985426,-0.0150715308263897
7.226560791015625,0.052214463622868,-0.0233197930499911,0.0245458277136087,-0.012415949255228,-0.0040862709283828,-0.0048263384960591
7.24661279296875,0.0174579152792692,0.0176582601569592,-0.0875689778596162,0.0094184465706348,0.0108850169926881,-0.0091369431465864
7.2666650390625,-0.0142042107129469,-0.011002966986224,0.0277197815746068,0.0037849815562367,-0.0081110121682286,-0.0162632353603839
7.286717041015625,0.0292649286573752,-0.0099398677993565,0.1308101536929607,-0.0103257009759545,-0.0137205347418785,-0.0186207089573144
7.306768798828125,0.0476284144742414,0.0386271792318671,-0.0549403814554214,0.0029441218357533,0.0026982324197888,-0.0034548994153738
7.32682080078125,0.03172375651896,0.0453778225358575,-0.0457750782251358,0.019496276974678,0.0049317199736833,-0.0009353240020573
7.346872802734375,-0.003868438931182,-0.0436232339534908,0.1110632506936788,0.0007694982923567,-0.0082053355872631,-0.0075478283688426
7.366925048828125,-0.0147269924780353,-0.021599398998171,0.1953922237187624,-0.0081823607906699,0.0039308024570345,-0.0013289090711623
7.38697705078125,0.0211787624333053,-0.0214523917429149,0.076888593891263,-0.0144157744944095,-0.0031875865533947,-0.0005669079255312
7.40702880859375,0.0395131682861596,-0.0307332111116498,0.0319061273485422,-0.0059550069272518,-0.0072914375923573,0.0015421616844832
7.427080810546875,0.0724194491205737,-0.017497370506823,-0.119373398399353,0.0191190354526042,-0.0070182513445615,0.0099011082202196
7.447132568359375,0.0325310543138533,-0.0025902356889098,-0.0842483090043067,0.0280216392129659,-0.0028529628179967,0.0079969903454184
7.4671845703125,-0.0378815484963357,-0.0069525225516408,0.1029722986966371,0.0064161708578467,-0.0076220096088945,-0.0017055459320545
7.48723681640625,-0.0690414605874568,-0.0227490804899483,0.2805669999182224,-0.0238710325211286,-0.0111164450645446,-0.0106790363788604
7.507288818359375,-0.0318265593063086,0.0234111976604908,0.0928396117389202,-0.0190018229186534,-0.0043607484549283,-0.0086311493068933
7.5273408203125,0.0131785209270194,0.0153507869321852,-0.0760644180268049,0.0008793778251856,0.0044264309108257,-0.0080573931336402
7.547392822265625,0.0521061809428036,0.0117309889998286,-0.076519176056981,0.0125101208686828,-0.0007608411833643,0.003164961002767
7.56744482421875,0.0596937499949708,-0.0097159228503704,-0.0138899936646223,0.0181146338582038,-0.0014723106287419,0.0134353414177894
7.5874970703125,0.0119996133407577,-0.0168891754806041,0.1188122573852539,0.0048671280965209,-0.0113552091643214,0.0086132045835256
7.607548828125,-0.0351900809226557,-0.0331427564714103,0.1398433549761772,0.0046871700324118,0.0054361084476113,0.002502822317183
7.627600830078125,0.0037518998794257,0.0252368787176907,-0.0468500139802694,0.0171388741582632,0.014744309708476,0.0050263223238289
7.64765283203125,0.0312201178457587,-0.0103925069376826,0.1083119061589241,0.0021333608310669,-0.0123674552887678,0.0030204225331544
7.667704833984375,0.0260359932061284,0.0353593365423381,0.0328588980287313,0.0067313415929675,-0.0109820999205112,0.0106965955346822
7.687757080078125,-0.0089028894344344,0.0256659908499568,0.0154027363151311,0.008196041919291,0.0021437690593302,0.0047498964704573
7.70780908203125,-0.0338776100846007,0.0525822009567171,0.0042144028246402,0.0133974179625511,0.0096060307696461,0.0042720441706478
7.727861083984375,-0.0126205582506954,0.0326304961003363,0.0184171157002449,0.0090057514607906,-0.0037547266110777,0.007031527813524
7.74791259765625,-0.0014782193263992,0.0395496278390288,0.1046013612031936,0.0008868346922099,-0.0095932483673095,-0.0019475683802738
7.767964599609375,-0.0696293800106272,0.0685772771418094,0.0814168849706649,-0.0023123258724808,0.0006510545499622,-0.0067983623594045
7.7880166015625,-0.0011174962552264,0.0249408914458006,0.1153922198086977,-0.0109351612627506,0.0074282027781009,-0.0035080725792795
7.808068603515625,0.0465961488170549,0.0154281630173325,0.0094844521820545,-0.0038086841814219,0.0037103137001395,0.0061235376633703
7.82812060546875,0.0176746998351067,0.0187302002374082,-0.0197135852515697,0.0113359652459621,0.0020945761352777,0.0008931625634431
7.848172607421875,-0.0241812321849167,-0.0042743163183331,0.0489385106921195,0.0061771138571202,-0.0014536748640239,-0.0144118657335639
7.868224853515625,-0.0665747416803613,-0.0242890034083276,0.1030722519397735,0.0018635869491845,0.0038462085649371,-0.0236317124217748
7.88827685546875,-0.0281026434123516,0.019608663572371,0.1416086110830307,-0.0121333356946706,0.0083501646295189,-0.0202273279428482
7.90832861328125,0.1311090635742992,0.0510987574659287,0.0573603020787239,-0.0092040495947003,0.0011624535545706,-0.0003231693990528
7.928379638671875,0.0858050734596326,0.0282065421782433,-0.0304874927222728,0.0003583107609301,-0.0007923538796603,-0.0015666526742279
7.948431640625,0.0092738051060587,-0.0070293141148984,-0.0094978961855173,0.0100241769105196,-0.0029571328777819,0.0006400854326784
7.968483642578125,-0.0478960889670997,-0.0369025473963469,0.0751414579629898,-0.008596496656537,-0.0137397563084959,-0.011608125641942
7.988535888671875,-0.1159837559610605,-0.0412269134014844,0.2068470991909503,-0.0273219849914312,-0.0140783172100782,-0.0214735195040702
8.008587890625,0.0329062443017959,0.0490950894933193,-0.0340086525857448,-0.0055891601368784,0.0037803016602993,-0.0117131657898426
8.0286396484375,0.0591502177027985,0.0294040813997387,-0.0894014539837837,0.0050148577429354,-0.0018870341591536,-0.0081138033419847
8.048691650390625,0.0090558149738237,0.0243112152401357,-0.0094932200103998,0.0120301330462098,-0.0108396150171756,-0.008215713314712
8.06874365234375,-0.0263681112373247,0.0257221780166029,0.1186041675925254,-0.0015527114737778,-0.0030829969327896,-0.0085835382342338
8.088795654296876,-0.0393678780639544,-0.0230118230793625,0.1325356623113155,-0.0058859074488282,-0.0004851059056818,-0.0112550780177116
8.108847900390625,-0.000405840854533,-0.0413586500223726,0.1163788927584886,-0.009863257408142,0.008328060619533,-0.0047863200306892
8.12889990234375,0.0545582502700388,-0.0557078586965799,0.042044659525156,-0.0041228951886296,-0.0045158001594245,0.0007709581404924
8.148951904296876,0.0174976262351498,-0.0286683144710957,0.0782365013688802,-0.0182815063744783,-0.0045831385068595,0.0004707430489361
8.169003662109375,0.021966734473221,-0.0072431029960513,-0.0176192433208227,-0.0061871018260717,0.0044264402240514,0.0024085012264549
8.1890556640625,0.0508074463691562,0.016480521614477,0.0039420156240463,-0.0012071809032931,0.0016262880526483,0.0132845416665077
8.209107666015624,0.0099051983447745,-0.0020680384457111,0.0248661457091569,0.0024391242768615,0.0030716666951775,0.0085247866809368
8.22915966796875,-0.0272797827221453,-0.019727540711686,0.0398000954687595,0.0011547580361366,-0.0055496240966022,0.0063470778986811
8.249211669921875,-0.1075367205353453,-0.057785249492526,0.0998497827619314,-0.0069346511736512,-0.0189523845911026,-0.0075210947543382
8.269263671875,-0.0704108857771381,-0.0326244316857308,0.0866384190112352,-0.003976778127253,-0.023048585280776,-0.0157179087400436
8.289315673828124,0.0239934545278549,-0.0105229283843189,-0.004287468060851,0.0015774490311741,-0.0095148775726556,-0.0058692824095487
8.309367431640625,0.049065498072654,-0.0023430559948086,-0.0807961227238178,0.0287024304270744,-0.0064500537700951,-0.0033454899676144
8.329419677734375,0.0699001232434064,-0.0274549931585788,0.0745902538210153,0.0128125175833702,-0.0157492160797119,-0.0036321929655969
8.3494716796875,-0.0255469310475513,-0.032357670508325,0.0444400302290916,0.0220327898859977,-0.0183501485735178,-0.0119799207895994
8.369523681640626,0.0015377309612929,-0.0112489776365458,0.0837602332264184,0.0064386697486042,-0.0133734736591577,-0.0042483014985919
8.38957568359375,0.0135298916479572,-0.0044351329032331,0.0800134479135274,0.0055988789536058,-0.0063509037718176,-0.0020446898415684
8.409627685546875,-0.0065992886671796,-0.0012147095520049,0.0365600906342268,0.0177738908678293,-0.0032237560953944,7.79689289629e-05
8.429679931640624,0.0274385169478133,0.0229988174673169,0.0247451496779918,0.0124995149672031,-0.0100718569010496,-0.0030182742048054
8.44973193359375,0.0169756847202777,0.0095546678740531,0.0085346041113138,0.0183354504406452,-0.0130537413060665,0.0096226017922163
8.46978369140625,-0.019537278836593,0.0135736211918294,-0.0038759646505117,0.0309908464550972,-3.00882384181e-05,0.0021011112257838
8.489835693359375,-0.0746359195936471,-0.0587968376878648,0.0665244362652301,0.0139628984034061,-0.0032353522256016,-0.0160287953913211
8.5098876953125,-0.0702348350904882,-0.0690638916149735,0.1389864458858966,-0.0002051996998488,-0.0185514260083436,-0.0104819033294916
8.529939697265625,-0.0143542501755058,-0.0712360480222851,0.217224700820446,-0.0132203241810202,-0.012846790254116,-0.0064728148281574
8.54999169921875,0.0625930151004344,0.017224617980048,-0.1173410157889127,0.0082177463918924,0.0047134240157902,-0.0020174484234303
8.57004296875,0.03223879336901,0.006450052922219,-0.1205839432328939,0.0283091701567173,0.0074608139693737,-0.0056958240456879
8.5900947265625,0.0783722565777599,0.0042580227706581,-0.0278021991610527,0.0374896116554737,0.0092676952481269,-0.0017130491323769
8.610146728515625,0.0533764566069468,0.0052147389736026,0.1633428885072469,0.0107063893228769,-0.0014496305957436,0.0109985433518886
8.63019873046875,0.0553596297807991,-0.0120202542699873,0.2326069788694381,-0.014697428792715,-0.0054476726800203,0.0187349840998649
8.65025048828125,0.0446967814691364,0.0295373523905873,0.0663800593584775,0.0050141490064561,-0.0038930806331336,0.0172473862767219
8.670302734375,-0.1158660113329067,-0.0458351378493011,-0.0605816022127866,0.0192425232380628,0.014327548444271,-0.0068977857008576
8.690354736328125,-0.087836469689384,-0.0161488054420799,-0.0170499190002679,0.0130509305745363,0.0226774793118238,-0.0115068834275007
8.71040673828125,-0.0454039433578029,-0.0009399842638522,0.1216986264765262,6.7874090746e-05,0.0092279985547065,-0.0084463115781545
8.730458740234376,-0.0217635765839368,0.0068398559574037,0.3673199852198362,-0.0446715503931045,0.0042153652757406,-0.0162028297781944
8.750510498046875,-0.0357871700329706,0.0663190498862415,0.0390390479683876,-0.0262199286371469,0.0217684842646121,-0.028835454955697
8.770563232421875,0.0647750718472525,0.0312313698921352,-0.1557493646383285,0.001527966465801,0.0080673769116401,-0.0139945428818464
8.790615234375,0.0596679944992065,0.0210212337840348,-0.1738449932992458,0.0286219920963048,0.0327560603618621,-0.0097359754145145
8.81066748046875,0.0689812548328191,0.0022148995704948,-0.0104191026836633,0.0268305037170648,0.0137222046032547,-0.0080033931881189
8.830719482421875,0.0373116031212732,0.0029550504133105,0.2335200020611286,0.0237961821258068,0.0098657207563519,0.0002651121467351
8.850771484375,-0.0217405975671485,-0.0079059508189558,0.2131470761179923,-0.0128578776493668,0.0127969086170196,-0.0081902528181672
8.870823486328124,0.0068044193178415,-0.0226524882476776,0.1812631606012582,-0.0210194122046232,0.0066946633160114,-0.0069656958803534
8.89087548828125,-0.0201950486255809,0.0212566499751061,-0.2667494869679212,0.0393592528998851,0.037691343575716,-0.0162361953407526
8.91092724609375,0.0619090148916467,-0.0151082103479653,-0.2018213799834251,0.0304976031184196,0.0462142750620842,-0.0081269387155771
8.930979248046874,0.1373302761767059,0.0533770045962184,-0.1252899289667606,0.0581747442483902,0.0187297537922859,0.0205910969525575
8.95103125,-0.0052916766673326,0.0296355520680546,0.1980991445899009,0.0381252579391002,-0.0165714230388402,0.0141721293330192
8.971083251953125,-0.1668485950732603,0.0233583714947104,0.2498030283421277,0.0203728601336479,0.0465063713490963,-0.0222771037369966
8.99113525390625,-0.0895529182184487,0.0419505515009164,-0.1749240207076072,0.034139834344387,0.0867426395416259,-0.0188691597431898
9.0111875,0.0906779401930049,-0.04342888042517,0.0473749146372079,0.034132432192564,0.0199285224080085,0.0008862130343914
9.031239501953126,0.03338938817624,-0.0271520646892487,0.2428723522961139,0.0026706764474511,-0.0229859445244073,0.0119379442185163
9.05129150390625,0.026825682279095,0.0594169423475861,0.3840355576992034,-0.0238633006811141,0.0151003906503319,0.0248871780931949
9.07134326171875,-0.0350474941141903,0.0347360900774598,0.0116682259619235,-0.0190348755568265,0.0351001396775245,0.0154508855193853
9.091395263671876,-0.1020259212246164,0.0006462620142847,0.032566637083888,-0.021259794011712,0.0616942606866359,-0.0070664933882653
9.1114462890625,-0.0041018092956393,-0.0445454633649438,-0.0213555072396993,-0.0130653623491525,0.0209396928548812,-0.0069552576169371
9.131498291015625,0.0607572145080193,-0.0317652575731277,0.252333423602581,-0.0103898365050554,-0.0416084267199039,0.0025355340912938
9.151550537109374,0.0426164680637419,-0.0665966247186064,0.1029652844339609,-0.0138465613126754,0.0029354733414947,-0.0057980017736554
9.1716025390625,-0.0705167938370257,-0.1257490709111094,-0.2265951712340116,-0.0080203460529446,-0.0266759246587753,-0.0215370878577232
9.191654296875,-0.0938340296037495,-0.0318958982154726,-0.1302583650290966,0.0171025209128856,0.0048996359109878,-0.0419971011579036
9.211706298828124,-0.0330990269275382,0.0634839725907892,-0.1723743362247943,0.0299563407897949,0.0133488690480589,-0.0440474934875965
9.23175830078125,0.0621244477406144,0.0493243682045489,0.0496422750473022,0.0319998934864997,-0.0096692275255918,-0.0268963649868965
