timestamp,acc_x,acc_y,acc_z,gyro_x,gyro_y,gyro_z
0.098024169921875,-0.0092459672510623,-0.0360636123541742,0.1094715975880622,0.0017589787021279,0.0024006520397961,0.0072532882913947
0.118076171875,-0.0854951307276263,-0.0291060483012348,0.0968657985150814,-0.0083985021337866,-0.0177432689815759,-0.0096772825345397
0.138128173828125,0.0400655780045315,0.0344752471841871,0.0239168821603059,-0.0074309706687927,-0.0061658998019993,-0.0022305711172521
0.158180419921875,0.0966437532622367,0.0483086883559823,0.0556570052921771,-0.0057194344699382,0.0057846154086291,0.0106429224833846
0.178232421875,0.1108050746815279,0.0383446359634399,0.0401443788617849,-0.0103806620463728,-0.0035574133507907,0.0223175380378961
0.1982841796875,0.0322029183380305,-0.0358040846351534,0.0639841041326522,-0.0210699588060379,-0.0203758105635643,0.0216034110635519
0.218336181640625,-0.0750204619318246,-0.01044635601677,-0.0430196420371532,0.0049412893131375,-0.0031272720079869,0.0120926517993211
0.23838818359375,-0.1577621292328462,-0.0420227399542927,0.0095119247108697,0.0265224892646074,0.0314574874937534,-0.0064653567969799
0.2584404296875,0.0641873350871726,0.017216653869301,0.2203600762367248,-0.0048714797012507,0.0364185012876987,0.0075216782279312
0.278492431640625,0.0827018832799047,0.0144280460640788,0.0789408502459526,-0.0040840646252036,0.0001252447254955,0.0189514923840761
0.29854443359375,0.1212748846391215,0.0154236329726874,0.213772514539957,-0.0325934812426567,-0.0235097371041774,0.0302827637642622
0.318596435546875,-0.0049446898605674,0.0049932782426476,0.0777718064665794,-0.0332228764891624,-0.0257772654294967,0.02261508628726
0.3386484375,-0.0789414713004603,0.0004863222122192,-0.1752080983459949,0.0035657577682286,0.0193682983517646,0.0156884901225566
0.3587001953125,-0.0757491780651733,-0.0648925242144614,-0.1339618957221507,0.0261234808713197,0.0176098439842462,0.0072928019799292
0.378753173828125,-0.015120594905503,-0.02416574235484,0.1428466284453868,0.0120532484725117,-0.0116631966084241,0.0088401893153786
0.39880517578125,-0.0348228915780782,0.0322174583200365,0.2305851176530122,-0.012679954059422,-0.0162522066384553,0.0025384481996297
0.418857177734375,0.0362515361417084,0.0828211988106369,0.0554641130685806,-0.0159778054803609,-0.0056566749699413,0.0113010127097368
0.4389091796875,0.0125530459724366,0.0425108887974172,0.0716045160084962,-0.0172757972031831,-0.0071012396365404,0.0125584388151764
0.45896142578125,-0.1176010184319689,-0.0018105565533041,-0.1254144321292638,0.0068921316415071,-0.0007433234713971,-0.0006870976649224
0.479013427734375,-0.0179470870357006,-0.029907062485814,0.0756160897374153,0.0033357557840645,-0.0153394248336553,0.0055302805267274
0.499064208984375,-0.0705821141581982,-0.011080927593261,0.0880763428598642,0.0085027897730469,0.0023186658509075,-0.0046220896765589
0.5191162109375,-0.05568433169052,-0.041783012914285,0.2414221534878015,-0.019642349332571,-0.002820475725457,-0.0126414559781551
0.539168212890625,-0.0141841177729889,-0.0065146425910294,0.189406135046482,-0.0376475751399993,-0.0141156632453203,-0.0176831074059009
0.559220458984375,0.0542242690753191,0.0597819032024592,-0.0199018013000488,-0.0236220881342887,0.0024726707488298,-0.0071133617311716
0.5792724609375,0.0875517709964886,0.0376540233507752,0.0068324763685464,-0.0179287232458591,-0.0150540098547935,-0.0003638097550719
0.599324462890625,0.0866604116473346,0.072342621024698,-0.0509971967875957,0.0006946988869458,-0.002254249760881,0.0181922800838947
0.61937646484375,-0.0236020075248554,0.0126071873124688,-0.0673579644799232,0.0248498693108558,0.0117368549108505,0.0150778647512197
0.639429443359375,-0.1369568762870505,-0.0872488790597766,0.1648036087095737,-0.0001156202051788,-0.0114496499300003,-0.0102942800149321
0.6594814453125,-0.1803337342640384,-0.0380350585576146,0.1295978552937507,-0.0091486414894461,-0.0102498568594455,-0.0277955867350101
0.679533203125,0.0239111830718815,0.0415829602975398,0.0501665911823511,-0.0058878669515252,6.6696666181e-05,-0.009447737596929
0.699585205078125,0.0598661839524283,0.0020764409478753,0.188415954965353,-0.0228981729596853,-0.0067759538069367,-0.0108921220526099
0.71963720703125,0.0298954085806384,0.0245842600278556,0.0972474913090467,-0.0278663299977779,-2.2053718566e-06,-0.0181131493300199
0.739689208984375,0.0487725064754486,0.0056126522500067,-0.009304419440031,-0.0187152661383152,0.0022131642326712,-0.0127590354532003
0.759741455078125,0.021207769332081,0.0259391817681491,-0.1415817230761051,0.0120770912617445,0.0147184180095791,-0.0041360813193023
0.77979345703125,-0.0215978280955925,-0.0722970283173024,0.0093915132015943,0.015544531866908,0.0078611206263303,-0.0115982787683606
0.799845458984375,-0.0215082135833799,-0.0347131475932896,0.1730173103034496,-0.0049270847812294,0.0072321593761444,-0.011365670710802
0.8198974609375,-0.0693788393156602,-0.0020151392146945,0.2244546520739793,-0.0195962581783533,-0.0002657482400536,-0.0255895368754863
0.83995068359375,-0.0313789616692811,0.036004283382371,0.0346253231793642,-0.0101751396432518,0.0254428498446941,-0.0315613523125648
0.860002197265625,0.0533094192527234,0.0424258408624678,-0.0046615620702505,-0.0084722973406314,0.0304919797927141,-0.0214440803974866
0.88005419921875,0.127752446622774,0.017842896008864,0.0333212548434734,-0.0061256056651473,-0.0049211769364774,-0.0046810032799839
0.900106201171875,0.0326118279324844,-0.0018774843096733,0.0766115305155515,-0.0102060111239552,-0.0013902438804507,-0.0072899302467703
0.920158203125,-0.0704601317463442,-0.0177230690214782,0.1010246717602014,-0.0157944746315479,0.0154813770204782,-0.0205875504761934
0.94021044921875,0.024103709969297,-0.0479001806203275,0.0996913773298263,-0.025187898427248,-0.003127044532448,-0.0096156317740678
0.960262451171875,0.1036441335435956,0.0037251580029726,-0.058372693991661,-0.0057665174826979,-0.0115320170298218,0.0062985634431242
0.980314453125,0.0400098292293027,0.0084435648269951,-0.0302682970136404,0.0073199644684791,0.00897918920964,0.0016147107817232
1.000366455078125,-0.0121348205603659,-0.0272537714980542,0.0874380449563264,0.0072566838935017,0.0158675331622362,-0.0009705726988613
1.02041943359375,-0.1599807185977697,-0.0543262681450694,0.1317524029791355,0.0013006620574742,0.0064071752130985,-0.023943530395627
1.040471435546875,0.0560597774067893,0.040176308370009,0.1660854652136564,-0.0130080133676528,0.0066161691211164,0.0002937819808721
1.0605234375,0.1298826635845005,0.0068422671101987,0.1094809499382972,-0.0168388839811086,0.0006874785758554,0.0172838754951953
1.080575439453125,0.0361718950342386,-0.0348504371721297,-0.0681143358051776,0.0020695505663752,0.0179986711591482,0.0148295424878597
1.10062744140625,-0.0122267366275191,-0.0511388702806085,0.0008346972584724,0.0101746069267392,-0.0029025042895227,0.0087895337492227
1.12067919921875,-0.0264395325057208,0.0040998365342617,0.1399386320441961,-0.0018664381932467,-0.0045144413597881,0.0091009708121418
1.1407314453125,0.0028563392791897,-0.0174251089882105,0.257851894763112,-0.0339669324457645,-0.0146842133253812,0.0093135479837656
1.160783447265625,0.0153493986926972,0.0706870358373969,-0.0227875858694314,-0.0192042402923107,0.0087261479347944,0.0127735659480094
1.18083544921875,0.0420286947710439,0.0694759795472025,-0.1451210031181573,0.0096241105347871,0.0238333810120821,0.0222308691591024
1.200888427734375,0.0389166636977344,0.009218129396066,-0.0844435393154621,0.0306178480386734,0.0101134702563285,0.0263506062328815
1.220940185546875,-0.0757175042852759,-0.0203150582760572,0.0749345372140407,0.0227308608591556,0.0013707615435123,0.0051469383761286
1.240992431640625,-0.0955193523421883,0.0147817548725754,0.2002688898444175,-0.0004409209359437,-0.0086120534688234,0.005568838212639
1.26104443359375,-0.0642388095460832,0.0113445469655096,0.1252647945255041,-0.0093753756955266,0.0083491262048482,-0.0002860638778656
1.281096435546875,0.0788456462431698,0.0589703676238656,0.0323836817324161,-0.0042412164621055,-0.0005464986898005,0.0136982947587966
1.3011484375,0.0171758469348773,0.0510529455628246,0.0701496410250663,-0.0040719821117818,-0.0090412450954318,0.0033231670968234
1.321200439453125,0.0044993572458624,0.0923483210906386,-0.0781429778665304,0.0161319393664598,0.0117575535550713,0.0019519608467817
1.34125244140625,0.0338005627930164,0.0112592067696154,-0.0123246440440416,0.0206834487617015,-0.0012967302463948,0.0132473595440387
1.361305419921875,-0.070121437843889,0.0214298145849257,0.1699228514194488,-0.0028488049283623,0.0031336960382759,0.0026614293456077
1.381357421875,-0.0927993893263861,0.0038759646505117,0.1266799220204353,-0.0101401582360267,-0.0107631655409932,-0.0088217994198203
1.4014091796875,-0.0794564716178923,0.0286423763122409,0.0353857861578464,-0.0089556006714701,0.0047084260731935,-0.0219566989690065
1.42146142578125,-0.0117724900539964,0.0053151306081563,0.0034375732332468,-0.0040518068708479,0.0003097271546721,-0.0162683986127376
1.441513427734375,0.0809385634018108,0.056546939869225,0.0088368019282817,-8.70942603796e-05,0.0011767712421715,-0.002330990275368
1.4615654296875,0.0657036579342559,0.0528171787563711,0.1062777699828147,-0.001195072196424,-0.009571561589837,0.0045252051204442
1.481617431640625,0.0552857973596081,0.025397110780701,0.0227238729834556,0.0010257544927299,-0.0021194606088101,0.0074154557660222
1.50167138671875,-0.0082499054184183,-0.0218510356716811,0.0129693716883659,0.0043314592912793,-0.006205431651324,0.0014220499433577
1.521723388671875,0.0778366883963346,-0.014899828294292,0.201204124867916,-0.0194790791720151,-0.0217270981520414,0.0073076928965747
1.541775390625,-0.0381036668144166,-0.0024240122765302,-0.0345335532426834,0.0009365179575979,-0.0032357135787606,0.0037078997120261
1.561827392578125,0.0851699904264882,0.022993629835546,0.0396972196161746,0.0032326173968613,0.0004760529845952,0.0133618973195552
1.58187939453125,-0.0082298855436965,-0.013181845395267,0.0433428826421499,0.0069279680028557,-0.0038033339660614,0.0054050921462476
1.601931640625,0.0119700584527105,0.0182834793832153,0.0549888967722654,0.0034236565697938,-0.0077106556855142,0.0100110117346048
1.6219833984375,-0.0377161653341725,-0.0352580681249499,0.0753846190690994,0.0003662405069917,-0.0098128486424684,0.009392000734806
1.642035400390625,-0.0429033952463418,-0.0179096045695245,0.0164893625080585,0.0053289555944502,-0.0041627227328717,-0.0017212952952831
1.662088134765625,-0.0233149342117831,-0.0406667222354561,0.0717787035316228,-0.0033780694939196,-0.0018087918870151,-0.003840297460556
1.68214013671875,0.0957481561293825,0.0161129304111003,0.0473030184447765,-0.0041634226217865,-0.0072278245352208,0.0036031799390912
1.7021923828125,0.0890486950233578,0.0723352414358407,-0.1588818174451589,0.0245971176773309,0.0017670020461082,0.0142949726432561
1.722244384765625,0.0165863931417465,0.0068047846440225,0.1413379774481058,0.0092097520828247,-0.0124939903616905,0.0147323366254568
1.74229638671875,-0.0527167140565812,0.0138496616542339,-0.003093874362111,0.0218907203525304,0.0153143107891082,0.0064613996073603
1.762348388671875,-0.0448452865617349,-0.0463040705353021,0.1692214251518249,0.0013438176829367,0.0104415649548172,0.0033357026986777
1.782400146484375,0.0087555899182334,-0.0552132801126688,0.1630599799126386,-0.0094246827065944,-0.0128268953412771,0.0033935322426259
1.80245361328125,-0.0410594113474711,-0.0664811816453933,0.1585883874565362,-0.0219179913401603,-0.0067812833003699,-0.0120862834155559
1.82250537109375,0.1291394805343821,0.0401903368953615,-0.0574450577527284,-0.0007423136848956,-0.0003228140994906,0.0160491373389959
1.842557373046875,0.0369325406758114,-0.0196267837509512,-0.2241799267858266,0.0407220460474491,0.0199750773608684,0.012264234945178
1.862609375,0.0696256902161985,-0.0316012261178344,0.0356377150923013,0.0329749844968318,0.009755877777934,0.0229336190968751
1.882661376953125,-0.0349961657857522,0.0102256259381771,0.2171335154056549,0.010236881673336,-0.0018209731206297,0.0142396204173564
1.90271337890625,-0.0890378813683986,0.0133354285217821,0.1938479168862104,-0.0080164894461631,0.013951419852674,0.0043025454506278
1.922765380859375,0.0171431502416729,0.0224756703760474,-0.010479308438301,-0.0017023098189383,0.0112004876136779,0.0110716726630926
1.9428173828125,0.0120362190240994,0.0336114699617028,-0.0418587815642356,0.0098981531336903,0.0185121968388557,0.0166051890701055
1.962870361328125,0.0081627020590007,0.0026578940976411,0.0382879373401403,0.0137552041560411,0.0077673294581472,0.0191602446138858
1.982922607421875,-0.0785913426885381,0.0089383626066148,0.0660205783963203,0.0124916424974799,0.0096287708729505,0.0093170292675495
2.002974365234375,-0.0314809607390314,0.0174598149754106,0.1131488247960805,0.0018836150411516,0.0052492651157081,0.0137626277282834
2.0230263671875,0.0314828604351729,0.028009558301419,0.1274088208168745,-0.0037789735943078,0.0117850434035062,0.0140165984630584
2.043078369140625,-0.0065263330288231,-0.0022145342443138,0.148534610953927,-0.0102573586627841,0.0049770609475672,0.0073671205900609
2.06313037109375,-0.0579853751745075,-0.0454990377627313,0.0549631778091192,-0.0171199720352888,0.005325173959136,-0.0036603063344955
2.0831826171875,-0.016701653551869,-0.0169357911013066,-0.0811158561974763,-0.0002709513064473,0.0134555390104651,-0.0019897054880857
2.1032353515625,0.0536530085260048,-0.0207373022761195,-0.0155664024442434,0.00891481526196,0.0054925307631492,0.0047987303696572
2.123287353515625,0.0518723356543108,-0.0062887248806655,0.0752162767648696,0.0072379349730908,-0.0146556440740823,0.0072752791456878
2.14333935546875,-0.0362547510121017,0.0108571287747472,0.1090706155717372,-0.008503645658493,-0.0023622238077223,-0.0005883704870939
2.16339111328125,-0.0502837512886151,0.0259003841277211,0.0171416889369487,0.002501034643501,0.0027387081645429,-0.0051685865037143
2.183443359375,-0.0371430416213348,-0.037844577486813,0.2100952873319387,-0.0277112945914268,-0.0076739904470741,-0.0107203442603349
2.203495361328125,0.0407732148172333,0.0335188232421874,-0.1555687473744154,0.0077726715244352,0.0204920247197151,-0.0019575175829231
2.22354736328125,0.0414136681452393,-0.0491457237020134,0.0811848297804594,0.0031248284503817,-0.0006230412982404,0.0020189629867672
2.243600341796875,0.0517637972459197,-0.0386294442541897,0.0864998873233795,-0.0042449072934687,-0.0184473022818565,0.0099188275635242
2.26365234375,-0.0364970353353768,-0.0503982810463756,0.0634217940747737,-0.0045650238171219,-0.0017996919341385,-0.0064665176905691
2.283704345703125,0.0306056757418438,-0.0114800099134445,0.0221060333460569,-0.005705208517611,0.0084840673953294,-0.0017297437880188
2.30375634765625,-0.0627597134368494,-0.078267627159506,0.011827800437808,0.0034008694346994,-0.0027954808901995,-0.010158916004002
2.323808349609375,0.0119090124478563,-0.0111603495050221,-0.0048269817650318,0.0115594333037734,0.0141323618590831,-0.0022603776305913
2.343860107421875,0.0020270488481968,-0.0383185516741126,0.0783288558274507,0.0115329008549451,-0.0043406509794294,-0.0060187648050487
2.363912353515625,-0.0224605093395337,-0.0286346313972026,0.1724251896291971,-0.0069355117157101,-0.0073983441106975,-0.0094020813703536
2.38396435546875,-0.0465312668872997,-0.0233552296895533,-0.0872609348237514,0.0117155201733112,0.0116028226912021,-0.0164189226925373
2.404017333984375,0.0739359180981293,0.0250659791301935,0.0227151051551103,0.0083211371675133,0.0008891532197594,-0.0049146567471325
2.4240693359375,0.0266696514671668,-0.0004954553667455,-0.0295692088335752,0.0227528791874647,-0.009642512537539,-0.0089032910764217
2.444121337890625,0.0013323811149224,0.0039838820043951,0.1256359659254551,0.0066192438825964,-0.0112586840987205,-0.0046003805473446
2.464173583984375,-0.0088991265747696,0.0237011935830116,0.0842237590849399,0.0093049816787242,-0.0015422417782247,-0.0016712103970348
2.4842255859375,-0.0079991089951246,-0.0062455433260649,0.0853214911937713,0.0095597645267844,0.0135185085237026,0.0004378031007945
2.50427734375,0.0105915366411209,-0.0573881399337202,0.1442015501856803,-0.0047627286985516,-0.0004593264311552,-0.0027310336008667
2.5243291015625,0.0011253142355009,-0.0354934843160212,0.0938543417394161,-0.0140552017837762,-0.006513831205666,-0.0112918801605701
2.54438232421875,0.0508953803809359,0.011798355147615,-0.0370043272703886,-0.0030156781431287,0.0012856200337409,-0.0009886051993817
2.56443408203125,0.0595099909259006,0.0079083619717508,-0.0497024808019399,0.0107189230620861,-0.0031974045559763,0.0056839101016521
2.584486083984375,0.0446736197892576,0.0263780115768313,-0.0704565150171518,0.0278070997446775,0.0003808964975178,0.0134089225903153
2.6045380859375,-0.0390723291834816,-0.006148878018558,0.1739525453269481,0.0086207296699285,0.0101647097617387,-0.0020841909572482
2.624590087890625,0.0278814384097233,0.0387220179084688,0.1947802293002605,-0.0112552577629685,0.0017746435478329,0.0072231017984449
2.64464208984375,-0.0707149832902476,-0.0629543226934969,0.2759539531648159,-0.0436197444796562,-0.0078527135774493,-0.0133870281279087
2.6646943359375,-0.0068486968509852,0.0314681743226945,-0.1114484506189823,-0.0082217846065759,0.0104590347036719,-0.0049976338632404
2.684746337890625,0.0107545086504891,-0.0392303327567875,0.0497878209978342,-0.014577267691493,0.0063563901931047,-0.0072552510537207
2.704799072265625,0.110590957006812,0.0737909932021051,-0.0860386995524168,0.0087443348020315,0.0094806281849741,0.0080761471763253
2.724850830078125,0.0498817098263651,-0.0047127808008342,0.2229910092622041,-0.0185301154851913,-0.003782570362091,0.0152670461684465
2.744903076171875,0.0777452472532168,0.033536358898878,0.0590372953802347,-0.0120037347078323,0.0001159259118139,0.0289624445140361
2.764955078125,0.0018887728886678,-0.0099323420800268,0.0477472550809383,-0.0134417694061994,0.0085773952305316,0.0275557450950145
2.785007080078125,-0.0252852844366803,-0.0067767275933176,0.0627320582449436,-0.012602237984538,0.004434660077095,0.0259462445974349
2.80505908203125,0.0314703662797808,-0.0238951087199151,0.0686217008054256,-0.0186222568154335,-0.0080083971843123,0.0206146538257598
2.825111083984375,-0.0804416832629591,0.0019946809485554,-0.1401449682712554,-7.9117482528e-05,0.0136925969272851,0.0038990005850791
2.8451630859375,-0.0323226722601801,-0.0090106971904635,0.0620323855429887,-0.0012807314051315,-0.0032460945658385,0.0041716890409588
2.86521630859375,-0.063804144455865,0.0222137315042316,0.1104535943627357,-0.0115601643919944,-0.0003346470184624,0.0036969603970646
2.885268310546875,-0.0368681702027097,0.0083548636302351,0.1482867736726999,-0.0187222156673669,0.000934649258852,-0.0035920534282922
2.9053203125,-0.0372097867146134,-0.0362538742292672,0.0481201800465583,-0.018303545191884,0.0035113780759274,-0.0097618950530886
2.9253720703125,-0.0276853313157334,-0.0798710437681525,-0.00714285749197,-0.0148245766758918,-0.0022581333760172,-0.0171061512082815
2.945424072265625,0.0739911188840866,-0.0031150632806122,-0.1024725324809551,0.0133605543524026,0.0086608286947011,0.0028059035539627
2.96547607421875,0.040405039091967,-0.0639859307635575,0.162337510856986,-0.0006930576637387,-0.0136822611093521,-0.0043535460717976
2.985528076171875,-0.000672711629793,-0.0136640759542584,0.1326478905141353,-0.0120003586634993,-0.0179501976817846,-0.006007713265717
3.005580078125,-0.0725697443114593,-0.0223893072668463,0.0763794753253459,-0.0138204488903284,-0.0231535192579031,-0.0189426112920045
3.02563330078125,0.0298554418964311,0.0374570394739508,-0.007299509358406,0.0015710156876593,-0.0091614238917827,-0.00791229121387
3.045685302734375,-0.0779991489490494,-0.0361472720496356,-0.0345282925456762,0.008268685080111,0.0027195075526833,-0.020853467285633
3.0657373046875,-0.0009471446570008,-0.0385293448805809,0.1263169339269399,-0.0059788655489683,-0.0104533620178699,-0.0160409826785326
3.0857890625,-0.0444330890316516,-0.0094306031029671,-0.0072761284828186,0.0117328017950057,-0.0106646744534373,-0.0213355161249637
3.105841064453125,0.0067613108284771,0.0003658376377075,0.1252881754010915,-0.0139283193275332,-0.003510006936267,-0.0264169815927743
3.12589306640625,0.1081685521654784,0.0545903989739716,-0.1274398004770278,0.0106986258178949,-0.0151457022875547,-0.0123729147017002
3.1459453125,0.0254534440778195,0.054972822420299,-0.0636760610967874,0.0183151084929704,-0.0038353679701685,-0.0123626999557018
3.1659970703125,-0.0454428505960851,0.0140246528949588,0.0309007496982812,0.0246487073600292,0.003134386613965,-0.0175401512533426
3.186050048828125,-0.0043386867914348,0.0144574182890355,0.2156757178127765,0.0043310774490237,-0.0012264316901564,-0.0117393471300601
3.20610205078125,0.0126560679554939,-0.0153239719904959,0.2161293067991733,-0.012895829975605,-0.0017081541009247,-0.0084333764389157
3.226154296875,0.0284802445530891,-0.0071878656774759,0.0385801982849836,-0.0124347498640418,0.0078584905713796,-0.0104537270963191
3.246206298828125,0.0750529028967022,-0.0072461717359721,-0.0887567263394594,0.0042579267174005,0.0052738487720489,-0.0088046193122863
3.266258056640625,0.0590073386333882,-0.0140093822605907,-0.0695920071423053,0.0136501127853989,0.0006434549577534,-0.0028559947386384
3.28631005859375,0.0206659540729597,0.0049387715764343,0.0084153616458177,0.0136572094634175,-0.0039000902324914,0.0036014863289892
3.306362060546875,0.0122749962160363,0.0029543928261846,0.1406622701436281,0.0045535629615187,0.0045539294369518,0.0067031169310212
3.3264140625,-0.0013227730363607,-0.0210979522820562,0.1883136636346578,-0.0097726332023739,-0.0030014954973012,-0.0009665777906775
3.34646630859375,-0.0169722506541758,0.0071400079477578,0.0592874707490205,-0.012110011652112,-0.0045222765766084,-0.0043712006881833
3.36651904296875,0.0290947231896221,0.0522461739353835,-0.0603489625006914,0.0053206523880362,0.0081454692408442,0.0003526764921844
3.386571044921875,0.0859593872385099,0.045921427893266,0.0112374333292245,0.0078057288192212,0.0041909017600119,0.0110595915466547
3.406623046875,0.0075866922693327,-0.0051948652293533,0.1490033975094556,-0.0068106390535831,-0.0025781269650906,0.0098089901730418
3.42667529296875,-0.0466607019532471,0.0003323006942868,0.0308376213341951,0.0025972859002649,-0.0015580663457512,0.0042151352390646
3.44672705078125,-0.1144551581542938,-0.0500412112370133,0.1553109732210636,-0.0110288420692086,0.0252885445952415,-0.0093643432483077
3.466779052734375,-0.0395963165249675,-0.0237893102578818,-0.202345696118474,0.0146071882918477,-0.0006976313889026,-0.034613411873579
3.486830322265625,-0.0353804889282211,0.0435161203172057,0.2246674180418252,-0.0190667137503623,-0.0234305672347545,-0.030075803399086
3.50688232421875,0.0986724826108664,0.1187812777251005,-0.0982277345180511,0.0063794604502618,-0.0091133341193199,-0.0032045270781964
3.526934326171875,0.0590801846738904,0.0271153859406709,-0.0402425785392522,0.0060643134638667,0.0045543508604168,-0.0019234326900914
3.546987548828125,0.1031747624661773,0.0634875527873635,-0.0095808982938528,0.0075163333676755,-0.0026264092884957,0.0093612000346183
3.56703955078125,0.0599399433083832,0.0420741778805851,0.0291734875142574,0.0091363424435257,-0.0123435985296964,0.0174161568284034
3.587091552734375,-0.0114222883768379,0.0109062286134809,0.0853898802548646,0.0029804417863488,-0.009461335837841,0.0180137902498245
3.607143310546875,-0.0991829894162714,-0.01493168473728,0.0715355424255132,0.0015413730870932,-0.0054558631964027,0.0021305452100932
3.6271953125,-0.1137743362832814,-0.01014554643929,0.0204202722162008,0.0027975214179605,0.0028926907107234,-0.0044232462532818
3.647247314453125,-0.0278428964976221,0.006097951548919,-0.0052758945763111,0.0102211087942123,0.012084886431694,-0.003669912694022
3.66729931640625,0.0047924949735403,0.0089195117756724,0.146108260589838,-0.001846253988333,0.0009543281048536,-0.0094634499400854
3.687351318359375,-0.0162680479075759,0.010845292206481,0.1833195086091756,-0.0198767129331827,-0.0112180318683385,-0.0143876718357205
3.7074033203125,-0.0379039064586162,0.0207266347516328,-0.0474175847351551,-0.0039985990151762,0.0017752279527485,-0.0213337875902652
3.72745654296875,0.0770513467049226,0.0215462075062096,-0.1185696808010339,0.0207370184361934,0.0070489714853465,-0.009244805201888
3.747508544921875,0.0824492236930876,0.0141145962007343,-0.0509995348751544,0.0275613591074943,0.0027390266768634,0.0041655809618532
3.767560546875,0.0315720730885863,-0.0005116027839481,0.1441091957271099,0.0123200574889779,-0.0024000778794288,0.0083932150155305
3.7876123046875,-0.0607374503616243,-0.008829276208952,0.257812731796503,-0.0173754077404737,-0.0141899287700653,0.0004935567267239
3.807664306640625,-0.1554643736844882,-0.0141854694798588,0.1261211190938949,-0.0257390644401311,-0.0014312560670077,-0.0222208090126514
3.82771630859375,0.0130904042521491,0.0214683199644088,-0.0701338589340448,-0.0067983251065015,-0.0004559317603707,-0.0164111424237489
3.8477685546875,0.0360758142486214,0.0126285954266786,-0.1370557700842619,0.0176751594990491,0.0013835150748491,-0.0123267862945795
3.8678203125,0.0823672444980591,0.0424846583776176,0.0629448242127895,0.0132473232224583,-0.0070564989000558,0.0013884748332202
3.887872314453125,-0.0004303542412817,0.038651729151234,0.0327934315770864,0.0156446062028408,0.0123082213103771,0.0056887953542172
3.90792431640625,0.0100798242593184,-0.016280907389149,0.1526169118314981,0.00033576390706,0.0097583197057247,0.002318279352039
3.9279775390625,-0.0041748745318502,-0.0317979177337139,0.1473871944844722,-0.00947274453938,-0.0033130454830825,-0.004320106934756
3.948029541015625,0.0076087579706683,-0.0209352360010147,-0.0581347935825586,0.0047396617010235,0.0065781637094914,-0.0038678257260471
3.968081298828125,0.0764303652623668,-0.0151526340115815,-0.0256534966945648,0.0132425846531987,0.0012568621896207,0.0115397032350301
3.98813330078125,0.10060067419447,7.08732791244e-05,0.0730026923686266,0.0077223842963576,-0.0119036808609962,0.0261426139622926
4.008185302734375,-0.0403625151244923,0.0129238520462065,0.003806406545639,0.0154322320595383,0.0072480984963476,0.0161800142377614
4.028237548828125,-0.0720779056739062,-0.0213861946389079,0.0564262360990047,0.0171628408133983,0.0140357352793216,0.0033498927950859
4.04828955078125,-0.0520161280391737,-0.0408382794100791,0.2498772626221179,-0.0142401326447725,-0.0062483064830303,-0.0055339932441711
4.068341552734375,0.0181308095721527,0.0259046949766576,0.0697013127356767,-0.010508962906897,-0.0110180657356977,0.0045912875793874
4.0883935546875,0.0214281340844929,0.0075395286593586,-0.0446942972511053,0.0027252382133156,0.003025087993592,0.0083004608750343
4.108445556640625,0.0362495268477126,0.0105229283843189,-0.065698506835103,0.0202661715447902,0.0051448117010295,0.0142719727009534
4.12849853515625,0.0102926267597824,0.0018761691354215,0.1607458577513694,-0.0042959842830896,-0.004044996574521,0.0133015923202037
4.14855029296875,-0.034896650934033,0.0095704499650746,0.2041910317242145,-0.0202746205031871,-0.0084171835333108,0.0090195145457983
4.168602294921875,0.0130387471301481,0.023757819141075,0.0097550858169794,-0.0053166057914495,0.0026643052697181,0.0199423171579837
4.188654296875,0.064106707599014,0.0212825150687247,-0.1136725564092397,0.0203788578510284,0.0044274264946579,0.025943661108613
4.208706298828125,-0.0513362925488501,-0.0562714839287102,0.0489607225239276,0.0100146662443876,-0.0099316090345382,0.0127795375883579
4.228758544921875,-0.0526991418672725,-0.0296015036679804,0.1060211648732423,-0.0024562038015574,-0.0183775965124368,0.0080229416489601
4.248810546875,-0.0169692915121093,0.0395752737369388,-0.0179985980272293,0.0094951912760734,-0.0013358383439481,0.0167416166514158
4.268862548828125,0.0050638227282091,0.0162719934303313,0.0680839406669139,0.0067979507148265,0.0030049993656575,0.0156898982822895
4.28891455078125,-0.0598354965532198,0.0017203209865838,0.0815676916182041,-0.0060363854281604,-0.0009537893347442,3.17078083753e-05
4.30896630859375,-0.0237271317418664,-0.0070418813355267,0.0599812982320785,-0.007643929682672,-0.0183536671102046,-0.0051843966357409
4.329019287109375,-0.0070743953656405,0.0045789983533322,-0.0466980382889509,0.0099622067064046,-0.002892798744142,0.0010352437384426
4.3490712890625,0.0812153345165774,-0.0368186685051769,0.0758691877156496,0.0157866217195987,-0.0045059137046337,0.0114129930734634
4.369123291015625,0.0605801409080624,-0.0279878579262644,0.0950993733644485,0.0101760802790522,0.0017228396609425,0.0176101308315992
4.38917529296875,0.02240793890208,-0.0162295425280928,0.148700615170598,-0.0058875838294625,-0.0036606260109692,0.0167939104139804
4.409227294921875,-0.0298750233797356,-0.0011806611519306,0.1140069029301404,-0.0123767275363206,0.0033373241312801,0.0061722341924905
4.429279541015625,0.0561212618030607,0.038874578121677,0.1058604213535785,-0.0191984362900257,0.0053449678234755,0.0109614916145801
4.44933154296875,0.0585544802993535,0.0341400969456881,-0.0737754303067922,0.0009510358795523,0.0023299260064959,0.017431927844882
4.469383544921875,-0.0595633285483345,-0.0408153369259089,-0.0254705413430929,0.0029398030601441,0.002885500434786,0.0092720594257116
4.489436279296875,-0.0380132485846057,-0.0326198285758495,-0.0655424394905567,0.0198449604213237,0.0006425464525818,0.0069939349777996
4.509488037109375,-0.0361398193955421,0.0080900752142071,0.0521089574217796,0.014992325566709,0.0050249299965798,0.0009878030978143
4.5295400390625,-0.0289308743974193,-0.015129253135994,0.1381388891458511,0.001251853769645,-0.007772475015372,-0.0037139113992452
4.549593017578125,0.0765629421334713,0.0411259372450411,0.037359716579318,0.0011228534858673,-0.0081168953329324,0.0054866620339453
4.56964501953125,-0.0264285361876711,-0.0027943068936467,0.0131143331170082,0.0062655080109834,-0.0037955367006361,-0.0074763689190149
4.589697021484375,0.0236080719394609,0.0285892578855156,-0.0010457096606492,0.0136386239901185,0.0070022908039391,-0.0017535795923322
4.609749267578125,0.0313141893373802,0.000598550415039,0.0772732092946767,0.0096622789278626,0.0120565500110387,0.0044853133149445
4.62980126953125,-0.0219751369753852,-0.0576487636312842,0.105865097528696,0.0042633982375264,0.0094795627519488,-0.0069729764945805
4.649853271484375,-0.0063009998403489,-0.0612494184717535,0.1655500431627035,-0.0111132506281137,-0.0071778250858187,-0.0073119020089507
4.6699052734375,0.0376468264250084,-0.0206904674597084,0.0597802227020263,-0.0148057071492075,-0.0160304009914398,-0.003193664830178
4.68995703125,0.1028722723882645,0.0291346898738294,-0.1747445724874734,0.0211759954690933,0.0046359952539205,0.0139022301882505
4.71000927734375,0.0553344222743064,0.0434918626587837,-0.094675010472536,0.040348008275032,0.0279511325061321,0.0170946381986141
4.730061279296875,0.0115294750783592,-0.0061344111017882,0.3015998510748148,-0.0061751790344715,0.007191143464297,0.0101643912494182
4.75011328125,-0.0685251816283911,0.0192217831466346,0.1375976218760013,-0.0085714180022478,-0.0031013630796223,-0.0011812278535217
4.7701650390625,-0.0097377693559974,0.0192310624316334,0.1550607978522777,-0.0230549369007349,0.0008456707000732,0.0067232428118586
4.790218017578125,0.0177185024442151,-0.0076648355394601,-0.1326180798977613,0.0077413246035575,0.0039506503380835,0.0090905260294675
4.810270263671875,0.0006644187254831,-0.0294351341251283,-0.0041021746218204,0.0093189841136336,0.0007453449070453,0.0067533180117607
4.830322265625,-0.0016879530869424,0.0196903505064547,0.0114303255528211,0.0141198569908738,0.0132884159684181,0.0115989772602915
4.8503740234375,-0.018140271520242,-0.0265609669283032,0.1267167468994856,0.0139417899772524,0.0057162498123943,0.0037262737751007
4.870426025390625,-0.0132111080223694,0.0027892653923481,0.1930114660620689,-0.007964551448822,0.0053837317973375,0.0024252268485724
4.89047802734375,0.06116155752521,0.0352402402073144,0.0649877282172441,-0.0050166305154562,0.0145042613148689,0.0129116885364055
4.9105302734375,-0.0359769204514101,-0.0380381272975355,0.1451069745928049,-0.0255231652408838,0.0060485363937914,0.0032174959778785
4.930582275390625,-0.0291019201153889,-0.0031355215467512,-0.0922977599471807,-0.0078370301052927,0.0013576061464846,-0.0041467351838946
4.95063427734375,-0.0219399925967678,-0.0126612555872648,-0.096776951187849,0.0104026030749082,0.0097421891987323,-0.0016499261837452
4.970686279296875,0.0011188479620963,-0.0097113197404891,-0.0738975953817367,0.0280476100742816,0.0101089756935834,0.001448247116059
4.99073828125,-0.0687775854868814,-0.0330952640678733,0.2047603560447692,-0.0041089043952524,0.0026764734648168,-0.0098087638616561
5.0107900390625,-0.0193180831279605,-0.0136151222459971,0.1759112781792879,-0.0190639179199934,-0.0039729014970362,-0.0165775902569293
5.030842041015625,-0.0325123130807653,-0.0248174842618405,0.1131394724458456,-0.030146837234497,-0.0020292124245315,-0.0195636209100484
5.05089501953125,0.0788144108546897,0.0129604577295482,-0.1148813476771116,-0.0007244953885674,0.0076695634052157,-0.0100050214678049
5.070947021484375,0.1084569041201844,0.0149647102240473,-0.0753396108835935,0.0145783936604857,0.0072093671187758,0.0038126572035253
5.0909990234375,0.0145699022201821,-0.02012333509624,-0.0079816464036703,0.0198604762554168,-0.0037399500142782,0.0011131418868899
5.11105126953125,-0.005106748554483,-0.0149651486154645,0.1089864444196224,0.0138133270666003,0.0027127373032271,0.0005367388948798
5.131103271484375,-0.0321771993748843,-0.0325595497559756,0.186019415217638,-0.0056306831538677,-2.0008534193e-05,-0.0051954300142824
5.1511552734375,-0.0014683920521289,0.025722543342784,0.0067559040009975,-0.0001379773020744,0.0031561516225337,-0.0028870201203972
5.171207275390625,-0.0113534609243273,0.0034050592031329,0.004304419195652,0.0047871959395706,-0.0076796063221991,-0.0068553565070033
5.191259033203125,-0.0466129538213834,0.0321221081867814,-0.0507885224729776,0.0149355772882699,0.0071279159747064,-0.0147654991596937
5.21131103515625,-0.0093212609769776,-0.0038116672426462,0.1532990488767623,-0.0039983238093554,-0.0008465028367936,-0.0171220358461141
5.23136328125,0.0458661540420725,0.020814386100322,0.0513327123522758,-0.0036778377834707,-0.0099122868850827,-0.0065731569193303
5.2514150390625,0.0111418274676427,-0.0105563922625035,0.0395651176691055,-0.0021801926195621,-0.0099637191742658,-0.0066871996968984
5.271467041015625,0.0492684002336114,0.0648875557783991,-0.0247217688024044,0.0152865061536431,0.0090574901551008,0.0002819313667714
5.29151904296875,-0.000489025625959,-0.024274901817739,0.1721785213917493,-0.0024781650863587,-0.0034839117433875,-0.008232781663537
5.311572265625,0.0434975617472082,0.0555722496181726,0.001215805530548,0.0071117617189884,7.9630408436e-05,0.0072473157197237
5.331624267578125,-0.0128813280787318,-0.0256011089202016,0.162052264174819,-0.0117957796901464,-0.00748340645805,-0.0063317604362964
5.35167626953125,-0.0083827380178496,0.0037043344106525,-0.0125987848103046,-0.0012730935122817,-0.0049788947217166,-0.0049530607648193
5.37172802734375,0.0175134448587894,0.0103803050432354,-0.0363332961410284,0.005416139960289,-0.000959841068834,-0.0025904574431478
5.391780029296875,0.0028266747932881,0.0243131880015134,-0.1616243941515684,0.0371603108942508,0.0120415594428777,-0.0001945060212165
5.411832275390625,-0.0255967615386471,-0.011801131626591,0.1717722786784171,0.0189297311007976,0.0071989810094237,-0.0057512870989739
5.43188427734375,-0.0241050616761669,0.0196913734197616,0.23258476703763,-0.0036748442798852,-0.0027838761452585,-0.0084493365138769
5.451936279296875,0.0020381547641009,0.0307972162585705,0.1176876372694969,-0.0166541039943695,0.0048158336430788,-0.0112099312245845
5.47198828125,0.0548082795083522,0.0386750369615852,-0.0938853213995695,0.0010408281814306,0.0131660234183073,-0.0068741338327527
5.4920390625,0.0897672185562551,0.0076205580063164,0.0211772280633449,0.0016398588195443,0.0011331010609865,0.0116110574454069
5.512091064453125,6.33840924128e-05,-0.0148296856675297,0.0384673855602741,0.0034816151019185,-9.83835197985e-05,0.0063679027371108
5.53214306640625,-0.0528061459057033,-0.0189354404859244,0.0895598594158887,0.0045756325125694,0.0084997471421957,-0.0003078060690313
5.5521953125,0.0081629212547093,0.0497837293446064,0.1129255374342203,0.0042563155293464,0.0145578309893608,0.0100132934749126
5.572247314453125,-0.0058368163947015,-0.0309738879997283,0.0844295107901096,-0.0050262911245226,-0.0048900200054049,0.0016057910397648
5.59229931640625,0.0598121156776323,0.0346634632326662,-0.1113315462410449,0.0141830909997224,-0.0064711389131844,0.0159876588732004
5.61235107421875,0.0211306124426424,0.0242801625147461,-0.0245037421375513,0.0284870918840169,0.0134670743718743,0.016477033495903
5.632404296875,-0.005217990376614,-0.0712319563690573,0.266235107704997,-0.007970618084073,-0.0092113381251692,0.0066607533954083
5.652456298828125,-0.0985470296002924,-0.0473540910448879,0.1452799930721521,-0.0171976592391729,-0.0092507926747202,-0.000498411944136
5.672508056640625,-0.0683856635598465,-0.024805501563102,-0.0289630596339702,-0.0014524912694469,0.0073459455743432,-0.0095862951129674
5.69256005859375,0.0639730347493663,-0.0055167175948619,-0.0338636911571025,0.00697364192456,0.0042338939383625,0.0009482745081186
5.712612060546875,0.107662429274246,0.0062614715475589,-0.0768850867599248,0.0294723007827997,0.0056614987552165,0.014627031981945
5.7326640625,0.0355895651016384,-0.0357118032418191,0.1687503005087375,0.0055019967257976,-0.0010798764415085,0.0159772168844938
5.75271630859375,-0.0808988159133121,-0.0412334162075072,0.2460644263356924,-0.0264648161828517,-0.0055708787404,0.004403481259942
5.772768310546875,-0.07368387956582,0.0067542965658009,0.1682856056064367,-0.0340572148561477,0.0008253101259469,0.0030580330640077
5.7928203125,-0.0005012275204062,0.0036338995229452,-0.0645657034128904,-0.0152490921318531,0.0089066363871097,0.0016755275428295
5.8128720703125,0.054777007587254,-0.0043462125107645,-0.1425228033185005,0.0128698721528053,0.0190446469932794,0.000599437393248
5.832924072265625,0.0604264116510748,-0.0243728092342615,0.0068652095943689,0.0124404029920697,0.0034017697907984,0.0104567296802997
5.85297607421875,-0.0472222813587635,-0.0409139749947935,0.1655681633412838,-0.0076550068333745,-0.0015367199666798,0.0064486539922654
5.873028076171875,-0.0312816753072664,-0.0112153676278889,0.1132277352511882,-0.0101944208145141,0.003694147337228,-0.0017825488466769
5.893080078125,-0.0119515729479491,-0.0090841277528554,0.0639274055093526,-0.0060525606386363,0.0047806724905967,-0.0070014670491218
5.913132080078125,0.0586045665187761,0.0241029793169349,0.0523041877329349,-0.0113830799236893,0.0005427142605185,-0.0025124268140643
5.93318408203125,0.0464609415974468,0.0283151901844888,0.0022317045748233,-0.0043156053870916,-0.0084317177534103,0.0030515422113239
5.9532373046875,0.0029991452833637,-0.0033915421344339,0.0446551342844963,-0.0018165453802794,-0.0014725793153047,0.0047148806042969
5.973289306640625,-0.0375779989724978,-0.0176402861088514,0.0487228221148252,-0.0018459525890648,0.0054122684523463,-0.000764119438827
5.993341064453125,-0.0115216936307027,-0.0228715378258377,0.04608429030478,0.009829981252551,0.0130233885720372,-0.0024636331945657
6.01339306640625,-0.0047329833386465,-0.0611557488389313,0.1580307535737752,-0.002803255803883,0.0019326545298099,-0.0070091164670884
6.033445068359375,0.1021489996150136,0.0009800240132957,0.1209247194945812,-0.009762018918991,-0.006764808204025,0.00574312498793
6.053497314453125,0.0722234881570562,0.004377557497099,0.0022194296151399,-0.0042224675416946,0.0040661534294486,0.0152914524078369
6.07354931640625,0.0285725990116596,-0.0167857881713658,-0.106607440328598,0.0158406514674425,0.0152047462761402,0.0127779794856905
6.09360107421875,0.0161506320729851,-0.0154052935983985,-0.0416606286436319,0.0342806130647659,0.0121383862569928,0.012545084580779
6.113653076171875,-0.078443677846156,-0.0520408606216311,0.2123106252938509,0.0082431808114051,0.0040401667356491,4.9462541937e-06
6.133705078125,-0.0803360674640163,-0.0332055925745517,0.2310141567200422,-0.019202409312129,-0.0053778705187141,-0.009626967832446
6.153757080078125,-0.0280763033946976,-0.0350831499494612,0.0853057091027498,-0.0256554745137691,-0.0016799257136881,-0.0107725616544485
6.17380908203125,0.0123506918007507,0.0259802444308996,-0.166026428502798,0.0130367754027247,0.0150798447430133,-0.0051177972927689
6.193861083984375,0.1140101178005337,0.0177141550626605,-0.0058773676007986,0.0164568740874528,0.0144697176292538,0.0042578601278364
6.2139130859375,0.0290673967912793,-0.0162918671745806,0.0669388622850179,0.0094093643128871,-0.0017780005000531,0.0055084242485463
6.233966064453125,0.0114840650340542,-0.0051755760069936,0.1500403393417596,-0.0096101593226194,-0.0093804486095905,0.0013156561180949
6.254018310546875,-0.012433255517669,0.0139849054064601,0.0931914939165115,-0.0073086069896817,0.0017595859244465,0.0069445739500224
6.2740703125,0.0217149151366204,0.0093693013697862,0.0968663830369711,-0.0083073861896991,0.004596727900207,0.0075183319859206
6.294122314453125,-0.0107462888114154,-0.0008550824593752,0.0512941339075565,-0.0039381538517773,0.0074678491801023,0.0079021668061614
6.31417431640625,-0.0285321208707988,-0.0156762194942682,0.0555950459718704,-0.0085340477526187,-0.001243770122528,-4.44008037447e-05
6.334225830078125,-0.012360847868584,-0.0075652476225048,0.0456225180119276,-0.0044434918090701,-0.0061792586930096,-0.0027041346766054
6.354278076171875,0.0079793813813477,-0.0015132541071623,0.0715706137388944,-0.0060380650684237,-0.0088572148233652,0.000441092532128
6.374330078125,-0.0390589947778731,-0.0304095321152359,0.0975982044428586,-0.0145252626389265,-0.0049287863075733,-0.0117099769413471
6.394382080078125,0.0165249452780932,0.0098977091580629,-0.0616004238665103,0.0032364148646593,0.003974808845669,-0.0072270412929356
6.41443408203125,0.050820561579056,-0.0074698974892497,0.0223217219233512,0.0069235218688845,-0.0025410349480807,0.0016686199232935
6.434486083984375,-0.0088807506678625,-0.0151502228587865,0.1307353348910808,-0.0049345111474394,-0.0060468954034149,-0.0062203081324696
6.4545380859375,-0.0432265262534841,-0.021750132580474,0.1161421613931655,-0.0140098687261343,-0.0107330679893493,-0.0133584942668676
6.47459130859375,-0.0537285214476287,0.0166213913898915,0.0462958872288465,-0.0134377861395478,0.0097059644758701,-0.0128355985507369
6.4946435546875,0.0254787977147847,-0.0274025323189795,-0.0891927796691656,0.0113324970006942,0.0042180316522717,-0.014551818370819
6.5146953125,0.0593549099620431,-0.0243090232830494,0.0383960738897323,0.0067328745499253,-0.0051053147763013,-0.0131123419851064
6.534747314453125,0.0588314706098288,0.0068185209084302,0.0856277806639671,0.0059911590069532,-0.0052666263654828,-0.0038361719343811
6.55479931640625,-0.0192255825389176,-0.0370649714164435,0.1954167736381292,-0.0098586268723011,-0.0050679161213338,-0.0157235339283943
6.574851318359375,-0.0211394533362239,-0.0340454043995589,-0.0038461540341377,0.0017859411891549,-0.0014423648826777,-0.0194888263940811
6.5949033203125,0.0492191542644053,-0.0336339740544557,0.0728331810206174,-0.002019315958023,-0.0038178313989192,-0.0171516500413417
6.614955322265625,0.0756419182984158,0.0448936922807246,-0.1205009411245584,0.0232580509036779,0.0082277245819568,-0.011363691650331
6.63500732421875,0.0915599471919238,0.0446554996106773,0.0409586178541183,0.0193407218903303,-0.008863415569067,0.0003790603950619
6.6550595703125,-0.00437792282328,0.0121554249569773,0.1174497368603944,0.0101819345727562,-0.0145704559981822,0.0001374171115458
6.675111328125,-0.0351490547925233,-0.0009605155952274,0.1104693764537572,0.0051258290186524,-0.0111644621938467,-0.0046191411092877
6.695163330078125,-0.0175702896125614,0.003552724045515,0.0270242005258798,0.0164734348654747,0.0187080223113298,-0.0033754636533558
6.71521630859375,0.0170249306894838,-0.0249095464594662,0.0480897849082946,0.0229732822626829,0.0095599517226219,-0.0039981482550501
6.735268310546875,0.0438075775444507,-0.0059177726764231,0.1796376052260399,-0.0053012543357908,0.0025823567993938,-0.0028084199875593
6.755320556640625,0.0707557902246713,0.0248856541272252,-0.0227168587207794,0.010618426837027,-0.0012272200547158,0.0021025636233389
6.77537255859375,0.0033835049584507,-0.025818551063165,0.1435690975010395,-0.0120568303391337,-0.0112778777256608,-0.0016560512594878
6.79542431640625,-0.0093070863211527,0.0373665847115218,-0.0687789371937513,0.0141239147633314,0.0113756572827696,0.0052231214940547
6.815476318359375,-0.0302422857895493,-0.013180457155779,0.0679798957705497,0.0118455942720174,0.0110421907156705,0.005694976542145
6.835528076171875,-0.0337952655633911,0.0242167418897151,0.2020949362277984,-0.0004652973730117,0.0019097561016678,0.0003048535436391
6.855580322265625,0.0317055267425254,0.047488604144752,0.1686748971849679,-0.0233450550585985,0.0021775178611278,0.0027534016408026
6.87563232421875,0.019586488273181,0.0392149890571832,-0.020181202763319,-0.0150521099567413,0.0096754878759384,0.0057428390718996
6.895684326171875,0.0195038149584084,0.0390958927221596,-0.1146896244972944,0.0031872878316789,0.0077813402749598,0.0082672107964754
6.915736328125,-0.0283701352421194,0.0306399068050086,-0.047121232137084,0.0174092072993516,0.0051055490039289,0.0076822093687951
6.93578955078125,-0.0229920224003493,0.0571891832955181,0.056132806110382,0.0155487917363643,0.0057385815307497,0.0098572131246328
6.955841552734375,-0.0618062486369162,0.0644371085971593,0.1588344711720943,0.0008120362181216,0.009457116946578,0.0054058148525655
6.9758935546875,-0.0841499266637489,0.0138317606713622,0.1899380499660968,-0.0169768221676349,0.0005625388585031,-0.0050691585056483
6.995945556640625,-0.010107077592425,-0.0098450291227549,0.1232131226927042,-0.022568030282855,-0.005761669948697,-0.0004630882758647
7.01599755859375,0.0066643532600253,-0.0477520773865282,-0.0849929898917675,-0.0010071691358461,0.0008140932768583,-0.0017074879724532
7.03604931640625,0.0281494051635265,-0.0837765998393297,0.0022825579792261,0.0090653663501143,-0.0016177161596715,-0.0077813398092985
7.056101318359375,0.0043092415012419,-0.0779389797270297,0.1399421391755342,0.0013464335352182,-0.0103091318160295,-0.0109495893120765
7.0761533203125,0.1198087210766971,0.0148098849885165,0.018422376397252,0.0115354182198643,-0.0025495556183159,0.0123871769756078
7.096205322265625,0.0749074300114065,0.0124671212546527,0.0052063364714384,0.0187771674245595,-0.0040383008308708,0.016646048054099
7.11625732421875,0.0380813453847542,0.0054933367192745,0.0653279199570417,0.0075613455846905,-0.0122571215033531,0.0158180128782987
7.136310546875,-0.0451637413937598,-0.0138838561847805,0.0226689279258251,0.0144433230161666,-0.0206606481224298,0.0108896810561418
7.156362548828125,-0.1056631086831912,-0.0088408205162733,0.1037783543825149,0.0087801702320575,-0.0174631476402282,0.0072049717418849
7.17641455078125,-0.0677340677833184,-0.0128594815731048,0.1117073938161134,0.0029514308553189,-0.0090501029044389,0.0033969543874263
7.196466552734375,-0.0425294473674148,0.0169467508867383,0.0052232876062393,0.0091753453016281,0.0045521450228989,-0.0047578155063092
7.216518310546875,0.0088732614811509,-0.0123536509428173,0.0447089102983474,0.0018023801967501,-0.0103557743132114,-0.0118130426853895
7.2365703125,0.0532060319434851,0.0221188197623938,0.0973953753471374,-0.0032305738423019,-0.0169127061963081,-0.0053536226041615
7.25662255859375,0.0806650071574375,0.0061649523705244,0.013871873486042,0.0026566232554614,-0.0162991508841514,0.0092905107885599
7.27667431640625,-0.0130110919382423,-0.0381754899416118,-0.0282832606762647,0.0183950066566467,-0.0108231604099273,0.004287629853934
7.296726318359375,-0.0311271788652986,-0.0301065305806696,0.1293693072348833,0.0083017079159617,-0.0080561749637126,0.0002523511648178
7.316779296875,-0.0509944933738559,-0.023011311622709,0.187213008916378,-0.0090990206226706,-0.0074167484417557,-0.0067609511315822
7.33683154296875,-0.071299103321135,-0.0039014644179493,0.208684836012125,-0.0292248632758855,-0.0156198162585496,-0.0208131205290555
7.356883544921875,0.0702136827046051,0.0482476788837462,-0.0445721321761608,-0.0192469228059053,-0.0196459107100963,-0.0102249439805746
7.376935302734375,0.1309923783920705,0.0888457928624004,-0.2366290739923715,0.0259812846779823,0.004632684867829,0.0106115909293293
7.3969873046875,0.0561665622495114,0.015039821286872,0.0087339260756969,0.0291983820497989,0.005491288844496,0.0155453626066446
7.417039306640625,0.0538490425547584,0.0032731764517724,0.2594914786636829,-0.0022296118550002,-0.0041299210861325,0.013297788798809
7.43709130859375,-0.0166130984855815,-0.0346348216600716,0.1584188761085271,-0.0126673094928264,-0.0132459141314029,0.0072173923254013
7.4571435546875,-0.0009772110017016,0.0075952043693512,0.0435176546871662,-0.0033340849913656,-0.003037866204977,0.0089613255113363
7.477195556640625,0.0170076872937381,-0.018832345437631,-0.0491933622360229,0.0095861423760652,0.0085037387907505,0.0087966099381446
7.497248046875,0.0225974335921928,-0.0217873958509415,0.0723310767173767,-0.0009440653957426,-0.005226716864854,0.0050828298553824
7.517300048828125,-0.0511299563217908,0.0001358282741159,0.0346744230180978,0.0008016498759388,-0.0009316084906458,-0.0007404941134154
7.53735205078125,0.0011302461389452,0.0041770664889365,-0.00673252312541,0.0112117789685726,0.0132324127480387,0.0034740916453301
7.55740380859375,0.0222196863209828,-0.014980565380305,0.069885437130928,0.0080741075798869,0.0055160936899483,0.0039550764486193
7.577455810546875,0.0370379372790455,-0.0090701722927391,0.1254629474461078,-0.0007493966259062,-0.0057493816129863,0.007645096629858
7.597508056640625,0.0166224143031984,-0.0078560472626239,0.0695107585996389,-0.0006260923109948,0.0066537582315504,0.0063627837225794
7.61756005859375,0.0057468365563079,-0.0169409056678414,-0.0503892940223217,0.0112396348267793,0.0011188732460141,0.0027027442120015
7.637612060546875,0.0348128085754811,-0.001428936824575,-0.0290986687123775,0.0210302006453275,0.0052769039757549,0.0146963484585285
7.6576640625,0.0093346684478223,0.00096972181499,0.0482563736468553,0.0200322158634662,0.0045983279123902,0.0063850213773548
7.677716064453125,-0.0494120464880019,0.0025128596037626,0.1642617569178342,0.008435046300292,-0.0055539058521389,0.0003429749049246
7.69776904296875,-0.0591346182748675,-0.0081194474391639,0.2298006892770528,-0.012939385138452,-0.0060652317479252,-0.0045320750214159
7.717821044921875,0.0332518428690731,0.0559133181408047,-0.0035112229913473,-0.0030139770824462,0.0039970632642507,0.0069077815860509
7.737872802734375,0.0555619474198669,0.0264285727202892,-0.0027145196557044,0.0036784603726118,0.0077534141018986,0.0164598170667886
7.7579248046875,0.0644145314391702,0.0021066899556666,0.0054664487123489,0.0036801658570766,-0.0081937070935964,0.0195379927754402
7.777976806640625,-0.0649765857687219,0.0049116643738001,0.0491384171783924,0.0057903733104467,0.0023175617679953,0.0152285238727927
7.798029052734375,-0.0305316971901804,0.0269411984175443,0.1699900714367628,-0.0079464996233582,0.004190981388092,0.0148736191913485
7.8180810546875,0.0095152126464992,0.052508697329089,0.0676829586505889,-0.0128608178347349,0.0106307324022054,0.0198669880628585
7.838133056640625,0.0599709229685366,0.0596475362330675,-0.0513935026288032,0.0017680081073194,-0.0003881338052451,0.0306886844336986
7.85818505859375,-0.0060639031488448,0.007176832826808,-0.0060229135513305,-0.0010456903837621,-0.0082058431580662,0.0254606343805789
7.87823828125,-0.0864017972437664,-0.0508932980217039,0.1536684667110443,-0.0141617758199572,-0.009148639626801,0.0088537707924842
7.898290283203125,-0.0976630498399958,-0.049165670511499,0.1235819560050964,-0.0168168842792511,-0.006320709362626,0.0034459764137864
7.918342041015625,-0.0031027517883107,-0.0128168845403939,-0.0272393045812845,-0.0018048675265163,0.0077229044400155,0.0065124160610139
7.938393798828125,0.0920196736581623,-0.0003572890050709,0.0222919113069772,0.0019281324930489,0.0016140276566147,0.0046735978685319
7.95844580078125,0.0022947598736733,0.0167139650441706,0.059527124723792,-0.0043223840184509,-0.0056743957102298,-0.0021397955715656
7.978497802734375,0.0359890492806211,0.0153990830533206,0.1633440575510263,-0.0206259973347187,-0.0053435186855494,0.0053676939569413
7.998550048828125,-0.0142443600602447,-0.0005691051248461,0.0214028535127639,-0.0065309605561196,-0.0001334636472165,0.0073901363648474
8.01860205078125,0.0014808496749028,-0.0281551042519509,0.0498795909345149,-0.0094129126518964,0.0054760705679655,0.0068937605246901
8.038654052734374,-0.0051654564717784,-0.0399452030278742,0.0118570265322923,-0.0009994590654969,0.0025928565301001,0.0015192539431154
8.05870703125,-0.0459653035676106,-0.043165845574811,0.2156844856411218,-0.0234193708747625,0.0027309604920446,-0.0111309317871928
8.07875927734375,-0.0631194135947152,-0.021443770045042,0.1403922210305929,-0.0360826104879379,-0.0034775526728481,-0.0206350497901439
8.09881103515625,0.0062942413059994,0.0196248109895735,-0.0323567937254905,-0.0245083458721637,0.0099351899698376,-0.0235292389988899
8.118863037109374,0.0318299933724105,0.0216658152978867,-0.1106266128420829,-0.0014482059050351,0.014987664297223,-0.0225660875439643
8.1389150390625,0.0672750354368239,0.0207427821688354,0.0029798925936222,0.0049356836825609,0.0135084688663482,-0.0131252966821193
8.158967041015625,0.0675171005643904,-0.0078847619004547,0.18829086728096,-0.0089079905301332,0.0136418920010328,-0.0037026330828666
8.17901904296875,0.0129095677925273,-0.0619156272955238,0.2185866368234157,-0.0290285199880599,0.0072213164530694,-0.0042437310330569
8.199071044921874,-0.0503051228702068,-0.1108152672819793,0.086662968930602,-0.0402430966496467,0.011137418448925,-0.0176460705697536
8.219123046875,0.066145227689296,-0.0775295952085405,-0.2086158624291419,-0.0026495708152651,0.0126728825271129,-0.0097455745562911
8.239176025390625,0.112433991057612,-0.0428032228074967,-0.1512333485186099,0.0254746731370687,6.4946245402e-05,0.0031654308550059
8.259227783203125,0.0559629294361919,-0.0124434481181204,-0.0016255553752183,0.031571626663208,0.0005773003213107,0.0115155819803476
8.279280029296874,-0.0116317664090543,0.03141600574404,0.0807762489795684,0.0260933116078376,0.0109969926998019,0.0128117240965366
8.29933203125,-0.1015854474481195,-0.0463416260667145,0.2245464220106601,0.0012624280061572,0.0024210033006966,-0.0043897475115954
8.319384033203125,-0.014132497183606,-0.0090539518103003,0.1078507183879613,-0.0048321345821022,-0.0050593242049217,-0.0051112547516822
8.33943603515625,-0.0878525440413504,-0.049681364948675,0.0861760621964931,-0.0139689715579152,-0.0001907180994749,-0.0259028412401676
8.359488037109376,0.0072912529867142,-0.004038607866317,-0.0273491946965456,-0.0024318015202879,-0.0049534011632204,-0.0164804048836231
8.379540283203125,0.0382332845434546,0.0307118760626763,-0.1171194819927215,0.0247170720249414,0.0087926555424928,-0.0112412050366401
8.39959228515625,0.083727500000596,0.0126279378395527,0.1257593000441789,0.0116527043282985,-0.0042194710113108,-0.0013549043796956
8.419643798828124,0.0363627414312213,0.0584193826775997,0.119822895732522,0.0046036601997911,0.0012175240553915,0.0028214259073138
8.43969677734375,-0.0349116658400744,0.0004506663769483,0.2697580211341381,-0.0253040716052055,-0.0025090370327234,-0.0017524193972349
8.459748779296875,-0.0540775906136259,-0.0017439941231161,0.1523375103682279,-0.0332829914987087,-0.0106853218749165,-0.0079473704099655
8.479801025390625,0.0062687415385618,0.0158333097521215,-0.1431611012220382,-0.0048887440934777,0.0098104793578386,-0.0017558813560754
8.499854248046875,0.0141891592742875,-0.0087999039839953,-0.1599105759710073,0.0196421928703784,-0.0037863655015826,-0.0017994055524468
8.51990625,-0.0380135043129324,0.0057131900150328,0.0309147782236337,0.0110114924609661,-0.0129441013559699,-0.0114445947110652
8.539958251953125,-0.0505199711972847,0.0506802397929131,0.1760065552473068,-0.0086821634322404,-0.0060573969967663,-0.012884110212326
8.56001025390625,-0.0300609013406559,0.0236832926001399,0.1967354550212621,-0.0233085826039314,-0.0148480329662561,-0.0156039763242006
8.580062255859374,0.0189324448112398,0.020799846118316,0.0641717356592416,-0.0243564378470182,-0.0037849948275834,-0.0129524003714323
8.6001142578125,0.0662892392698675,0.0220770995125174,-0.0654921706080436,-0.0073529793880879,0.0006031687371432,-0.011591943912208
8.620167236328125,-0.0083283044168725,-0.0454098981745541,0.1224134967476129,-0.0220574121922254,-0.0136687476187944,-0.0210440903902053
8.640219482421875,-0.0371589698428288,-0.0016384148567914,0.0786661249577999,-0.0150282783433794,-0.0165044423192739,-0.0271184388548135
8.660271240234374,-0.0268715307148173,-0.0513609155334532,0.1028273372679948,-0.0302481651306152,-0.019460666924715,-0.0335699841380119
8.6803232421875,-0.0620587986258789,-0.0162044811520725,-0.0866968712002038,-0.0140390042215585,-0.0240937657654285,-0.0494108684360981
8.700375244140625,-0.0685866294920444,-0.0038302988778799,0.1181605154782533,-0.0305122658610343,-0.0121899340301752,-0.0701278075575828
8.72042724609375,0.0143734298000112,0.0132791682898998,0.0531774634361267,-0.0320837721228599,-0.0074647613801062,-0.0748267993330955
8.740479248046874,0.1507411080222576,0.0387773282922804,0.0641775808781385,-0.0283434726297855,-0.007974985986948,-0.0444724336266517
8.760531494140626,0.1477143075469881,-0.0122966600585728,0.0726917267233133,-0.0451471395790576,-0.0348801426589489,-0.0552545636892318
8.780583251953125,0.2169801514748483,0.0593063215799629,-0.0922322934955358,-0.0126822916790843,0.0182470306754112,-0.0160056389868259
8.80063525390625,0.1266327949430793,0.0484600795254111,0.0253881237566471,-0.0245542041957378,0.0023422907106578,-0.0055772131308913
8.820688232421874,0.0368888841971755,-0.1054785824291408,0.2866425204396248,-0.0611516423523426,-0.0949996709823608,-0.0359635576605796
8.840740234375,-0.0673224547751247,-0.2254924706891179,-0.0969441244482994,-0.064134381711483,-0.1370277404785156,-0.1259475350379943
8.860792236328125,0.1317104635335504,0.2196699020154774,-0.1117711067020893,-0.0073610292747616,-0.0237560793757438,0.0138412062078714
8.88084423828125,-0.0200898346854373,0.1142478720791637,-0.1930909610390663,0.0613344982266426,0.0358852595090866,0.0510124489665031
8.900896240234376,-0.2307018028352409,-0.147315736683458,0.1781108340501785,0.0408811531960964,0.010783027857542,0.0015551694668829
8.9209482421875,-0.0606039601750671,-0.0277463042553514,0.3033814737945794,-0.0009514273842796,0.0091635975986719,0.0002189851365983
8.94100048828125,0.0034991672273725,-0.0047277591742575,0.1938274586200714,-0.0280971303582191,-0.0031394839752465,0.0098083820194005
8.961052490234374,0.035961649817042,0.0376104764699935,-0.1926490624904632,0.0153298936784267,0.0300510749220848,0.0130899660289287
8.9811044921875,0.2350854612795636,0.0285545518983155,-0.0872778859585523,0.0234822668135166,0.0115722743794322,0.0455420278012752
9.0011572265625,0.047431065271236,0.0102857586275786,-0.0632639731645584,0.0415540412068367,0.0278688818216323,0.0513630546629428
9.021208984375,-0.0749140789479017,-0.0003770166188478,-0.0331324542731046,0.0474651008844375,0.073090836405754,0.0322509743273258
9.04126123046875,-0.2001835496485233,-0.1341898592591285,0.1652069288134574,0.0294372253119945,0.0347058214247226,-0.0080751236528158
9.061313232421876,-0.0433013815879821,-0.0788641317479312,0.4102957881152629,-0.0282919630408287,-0.0283308941870927,0.0025398922152817
9.081365234375,-0.1133484390214085,0.0304580474320799,0.0977478420466184,-0.0321498438715934,0.0066545940935611,0.0004014880396425
9.101417236328125,0.259465869298391,0.0967087082572281,0.1089765075474977,-0.0337533913552761,-0.0131354676559567,0.0497788526117801
9.12146923828125,0.1992868200045079,0.1425997410122305,-0.0672165101826191,-0.0132305370643734,-0.0398996286094188,0.0555693432688713
9.141521484375,-0.0649024976192042,0.0457181604061275,-0.2249339600235223,0.0320364460349082,-0.0016024969518184,0.0382831469178199
9.161573486328123,-0.2100758519791066,-0.0630903701633214,0.1167073940604925,0.0153312338516116,0.0007474003359675,0.0040764599107205
9.181625244140625,-0.2244578304117545,-0.0823535082336515,0.0829804810255765,0.0010838457383215,-0.0014780894853174,-0.0204565413296222
9.201677978515624,-0.1822152371617034,-0.0334449542883783,0.135992524766922,-0.0176830124109983,-0.0002779932692646,-0.0373885408043861
9.22172998046875,-0.0377185399543493,0.0145143361080437,0.1051180785536766,-0.017664885148406,-0.0196314118802547,-0.0305000841617584
