timestamp,acc_x,acc_y,acc_z,gyro_x,gyro_y,gyro_z
0.108064453125,-0.0103088472422212,-0.0376375836726278,0.1939209821224212,-0.0080378409475088,-0.0150384400039911,0.0283823013305664
0.128116455078125,-0.0170078334242105,-0.0282475317757576,0.0795183578729629,-0.0152893420308828,-0.0126208048313856,0.024769390001893
0.14816845703125,-0.1267124543168582,-0.0309643895190209,0.0537029486149549,-0.0061462838202714,-0.0019567678682506,0.0079727116972208
0.168219482421875,-0.08914198106369,-0.0347929348312318,0.0561246228039264,-0.0025163744576275,0.0004078699275851,0.0007163304835557
0.188271484375,-0.0097376962907612,-0.0119614367548376,-0.0890337897151708,0.02217180095613,0.0162458792328834,0.0050588250160217
0.208323486328125,0.0467037373773753,-0.0208048145543783,0.1610123997330665,-0.008229624480009,-0.0100047644227743,0.0164621081203222
0.22837548828125,-0.0051858782052993,-0.0328868820142,0.2638473357856273,-0.0327126532793045,-0.0246371179819107,0.005728748627007
0.248427490234375,-0.0376322499103844,-0.0365825216617435,0.0454898315429687,-0.0158755239099264,-0.0121017722412943,-0.0016451063565909
0.268479248046875,-0.0100284411319531,-0.0352628173653036,-0.1324567518562078,0.0134939216077327,0.0022591156885027,0.0024445666931569
0.288531494140625,0.0135286678052507,-0.0458048888415098,-0.0539566311150789,0.0217924918979406,0.0111271170899271,0.014058755710721
0.30858251953125,0.0291102130196988,-0.0179660109318792,-0.045802550753951,0.0369956530630588,0.0034584556706249,0.0187065862119197
0.328634521484375,0.0091815967779606,-0.0200727008875459,0.2132873613715171,0.0123115982860326,-0.0105510503053665,0.018992394208908
0.3486865234375,0.0235764712247997,0.0257461434140801,0.3321422888547182,-0.0189120862632989,-0.0249444227665662,0.0272039361298084
0.368738525390625,-0.0051846360962837,0.0156117759559303,0.0665519087940454,-0.0205866824835538,-0.001758144237101,0.0116175189614295
0.388790283203125,-0.0338166371449828,-0.034525808327645,-0.0544213260173797,-0.0056165056303143,-0.0009725643321871,0.0094927987083792
0.40884228515625,-0.0663841144790872,-0.022233605248481,-0.0371013579040765,0.0037638661451637,-0.0017331335693597,0.0037396335974335
0.4288935546875,-0.0864400103623047,-0.0602354191236197,0.0352899245679378,0.0034951327834278,0.000712695531547,-0.0006859411951154
0.448945556640625,-0.0902735606431961,-0.0710093996595591,0.0510334371447563,0.0072365878149867,0.0012860554270446,-0.0168962702155113
0.46899755859375,-0.0473643932431936,-0.0314211933758109,0.2111772373497486,-0.0093535482883453,0.0096412803977727,-0.0255353823304176
0.489049560546875,0.0682946973407641,0.0162029467821121,0.1316366676449775,-0.0169627331197261,0.014279973693192,-0.0127463489770889
0.509101318359375,0.110995373089239,0.049770796797797,0.0797188488811254,-0.0088979313150048,0.0146979093551635,-0.0023851539008319
0.529153076171875,0.1110309558592736,0.016071210161224,-0.0051665889829397,-0.0037023206241428,0.0005085016600787,0.0078558642417192
0.549205322265625,0.0646409606061875,0.0132090987283736,0.031969840234518,-0.0017483897972851,0.0036625890061259,0.0110485618934035
0.569256591796875,0.0188165085476823,0.0055894905701279,0.030041502520442,0.0076395953074097,0.0111022945493459,0.0201165825128555
0.58930859375,-0.0424797082078643,-0.0120861591130495,0.0456131656616926,0.0064678043127059,0.0204686317592859,0.0156320855021476
0.609361328125,-0.0008510821376927,-0.0025019728835672,0.1601303562015295,-0.0031542922370135,-0.0024046436883509,0.0162079706788063
0.629413330078125,-0.0398842118219472,-0.0118910018671303,0.1486690509885549,-0.022231051698327,-0.0075254412367939,-0.0002282429486513
0.64946533203125,-0.0079366016855463,0.0046727410513907,0.1506342135816812,-0.0367007888853549,-0.0040948092937469,0.0024063722230494
0.66951708984375,-0.0143429433302022,0.0345484585508704,-0.0996142204403877,0.0033363739494234,0.001383046619594,0.001187443267554
0.689569091796875,-0.0212334517626091,-0.0073209174726158,0.0858475608944892,-0.0153733678162097,0.011821468360722,-0.0110802426934242
0.70962109375,0.0017974413434043,-0.0048502165101468,0.0078892919450998,-0.0042923316359519,0.0039423750713467,-0.0102422516793012
0.729672119140625,0.0176655301479622,0.0008680880714207,0.0591477700173854,-0.002303211716935,0.004398379009217,0.000696400180459
0.749724365234375,0.0267067503408528,-0.024272490664944,0.1158650980174541,-0.0160146933048963,0.0018101464956998,-0.0009185676462948
0.7697763671875,0.0154790346880443,0.0112958855181932,0.0075520228147506,-0.0023187333717942,0.0124225849285721,0.0001603499986231
0.789828125,-0.0421272963073104,-0.021762626735866,0.0616530308365821,-0.0071365069597959,0.0047697885893285,-0.0036994570400565
0.809880126953125,0.0230333773240447,-0.0036528234191238,0.2896691747844219,-0.0416276380419731,-0.0099971732124686,-0.0072537120431661
0.82993212890625,0.0221273318624123,0.0530675733208656,-0.0113356330066919,-0.0287641137838363,0.0105244480073452,0.0003456617705523
0.849984375,0.0293022284604608,0.0177433811571449,0.0306470671981573,-0.0319236181676387,0.0028642257675528,0.0036641997285187
0.870036376953125,-0.0466236396121792,-0.0154635265916585,-0.0420043275147676,-0.0033090270590037,0.0127263013273477,-0.0090933740139007
0.89008740234375,0.0143280380220152,0.0025854864485561,-0.0874035581648349,0.0076357712969183,0.0103031620383262,0.0052589178085327
0.91013916015625,0.0138006348807364,-0.0615928250819444,0.2432780104875564,-0.0235624480992555,-0.016982827335596,0.0051079932600259
0.930191162109375,0.0206258412582799,-0.008137859878689,0.0914209771126508,-0.0148548809811472,-0.0021794638596475,0.0077350912615656
0.9502431640625,0.0060679948020726,0.0027095512196421,-0.0351560690551996,0.001580812735483,0.0187451876699924,0.003845028579235
0.970295166015625,0.047173583378829,0.0309342135764658,0.0200286425501108,-0.0023225923068821,0.0022678007371723,0.0061292555183172
0.990347412109375,0.0214254672033712,0.0040360505830496,0.232202489721775,-0.0217462964355945,-0.014634002931416,0.007678956259042
1.0103994140625,-0.030107370830886,0.030727731218934,0.1531184316128492,-0.0329998955130577,-0.0067385188303887,0.0035748281516134
1.030451416015625,0.0011377170593477,0.0002288403198122,0.0109141927242279,-0.0222758837044239,-0.0085676489397883,0.0083885099738836
1.05050341796875,0.0132081488803029,-0.0254739023439586,0.0059212067425251,-0.0198431015014648,-0.0222426634281873,0.0104466509073972
1.07055419921875,-0.0336956045811995,0.0012715543057769,-0.0067073886841535,-0.0052202502265572,-0.0052380841225385,0.0039326786063611
1.090606201171875,0.0029256599220447,0.0370102455545216,0.0378361019194126,-0.0080929677933454,0.0067128217779099,0.0116709060966968
1.110658447265625,0.0484036731630563,-0.0034016982022672,0.1544675081342458,-0.0204258020967245,-0.0058607603423297,0.017327195033431
1.13071044921875,0.0650561172783374,0.0100257925171405,0.1038227780461311,-0.0212715454399585,-0.0127177033573389,0.0310695935040712
1.150762451171875,0.0874425384683534,-0.0125637134969234,0.0956044002771377,-0.0238062255084514,-0.0155569612979888,0.0345996990799903
1.17081396484375,-0.0045901590681634,-0.0301318111523985,-0.0043617023408412,-0.0094711733981966,-0.0063193785026669,0.0225795470178127
1.190865966796875,-0.1138208971050567,-0.1138769929401576,-0.0404103363215923,-0.0014466078719124,-0.0125043950974941,0.0119903134182095
1.21091796875,-0.0158590652478858,-0.0350059199947863,-0.0686392364621162,0.0162275414913892,-0.0122831165790557,0.0224633999168872
1.23097021484375,-0.0654768999736756,-0.0769189890295267,0.0804202751487493,0.0027172348927706,-0.0170638710260391,0.0055004903115332
1.251022216796875,-0.082131536046043,-0.068081529514119,0.2296633266329765,-0.0205999054014682,-0.0181855857372283,-0.0064822742715477
1.27107421875,0.0039230186626315,0.0328352979574352,0.0660667556256055,-0.0100538535043597,-0.0002588010393083,0.0060766697861254
1.291125,0.052933608210273,0.0086697747983038,0.1097153432160615,-0.0143625205382704,-0.0019614128395915,0.004738972056657
1.311177001953125,0.0044354616967961,-0.0059378656163811,-0.0305325009077787,-0.0006179371848702,0.0038329716771841,0.0020281067118048
1.33122900390625,0.0700105978805571,-0.0361421574831008,-0.0216898537606,-0.0016390688251703,-0.0198642648756504,0.0139844119548797
1.35128125,0.0094143460879102,-0.0245045458551496,0.0500561165452003,-0.0035291141830384,-0.0153312990441918,0.0142419394105672
1.371333251953125,-0.0235664612874388,-0.0263738468583673,-0.0050835868746042,0.0074880118481814,-0.0118532730266451,0.0157140139490365
1.39138525390625,-0.0601222776053473,-0.0216786747794598,0.0918354031324386,0.0042144446633756,0.0036808010190725,0.0037545911036431
1.411437255859375,-0.013133695404604,0.010763824468106,0.0991840123295784,0.0008632177487015,-0.0144458189606666,-0.0010280257556587
1.4314892578125,-0.019997882085666,0.0318508900299668,0.0765963329464197,-0.00330436299555,0.005343331489712,-0.0020200533326715
1.451541015625,-0.0228412888180464,-0.0075308338962495,0.0047416415691375,-0.0056916349567472,-0.0091817658394575,-0.0114553151652216
1.47159326171875,-0.0525256119312718,-0.0185381847966462,0.1069774426847696,-0.0062025152146816,-0.0041409749537706,-0.014587914571166
1.491645263671875,-0.0320807167304679,0.0075834408663213,-0.0277653742820024,0.0050526075065135,0.013125455006957,-0.0142313428223133
1.511697265625,0.0229995115870609,0.0211908912625163,0.0423947881370782,0.0021100905723869,-0.0035359361208975,-0.0072821248322725
1.531749267578125,0.0613212415989488,0.0397096407063305,0.052542672663927,0.0003204562235623,-0.0022494848817586,0.0003443355672061
1.55180029296875,-0.0137220897518098,0.0225686093565076,0.0250794961988925,0.006095896475017,0.0137027185410261,-0.0069885747507214
1.57185205078125,-0.0215182600533589,0.0149561615914106,0.1077986959397792,-0.0027914666570723,-0.0047187902964651,-0.0081050060689449
1.591904296875,-0.0757349668767303,-0.0026310060907155,0.1149397998660802,0.0046484349295496,2.76807695627e-05,-0.0113078355789184
1.6119560546875,-0.0012725772190839,0.006647255994752,0.0077945993989706,0.0108297271654009,0.012446716427803,-0.0041813291609287
1.632008056640625,0.009920980435796,0.0049914516117423,0.0541243888974189,0.0193524602800607,0.0091167418286204,-0.0094395512714982
1.652060302734375,-0.0053680298391729,-0.0650637891281396,0.1244786125838756,-0.0042541604489088,-0.0056128534488379,-0.0176377147436141
1.6721123046875,-0.032122692708671,0.0193744164250791,0.007258592826128,0.0091039892286062,0.0047588273882865,-0.0133217955008149
1.692164306640625,-0.0002528057172894,0.032822073149681,0.1216957038670778,-6.72952737659e-05,0.0061773611232638,-0.0155273228883743
1.7122158203125,-0.0369893123643472,0.0198028709702193,-0.0339198052585124,0.0082899462431669,0.0136354491114616,-0.0207009594887495
1.732267822265625,0.0724807508537545,0.0287529240146279,0.0519055438041686,0.0039036443922668,-0.0135033903643488,-0.005291067995131
1.75231982421875,-0.0046063978169113,0.0141899995245039,0.0587654927015304,-0.0074098352342844,-0.0165242757648229,-0.0092355962842702
1.7723720703125,-0.0104361999489367,0.0314025617405772,0.1579728859066963,-0.0113117089495062,-0.0074726208113133,-0.0116521064192056
1.79242333984375,-0.1083100064627826,-0.0107298491332679,0.0193669637709856,-0.0137144075706601,0.0038858330808579,-0.0237929411232471
1.81247509765625,0.0416143418164923,0.0181437786515802,0.05904606320858,0.0052105621434748,0.0001943758688867,-0.0138761792331933
1.83252685546875,0.0251409440625458,0.0045496261283755,-0.2153694283425807,0.0221937969326972,-0.0021203216165304,-0.0100366659462451
1.852578857421875,0.0557097949253395,0.0067045391399413,0.1849298664152622,-0.0042214319109916,-0.0163740571588277,-0.0046483082696795
1.872630859375,-0.0351407984208315,0.0288282542731612,0.0432020128667354,-0.0074491873383522,-0.02865457162261,-0.010036364197731
1.89268310546875,-0.0357298868877813,0.0284819981187582,0.2055880390405654,-0.0050261914730072,-0.0023539217654615,-0.0171933025121688
1.912735107421875,-0.0656735915895551,0.0355849619917571,-0.2135994960606098,0.0275688637048006,0.0064775715582072,-0.018924469128251
1.932787109375,0.0558740090437233,-0.0541638441249728,0.3029138562828302,-0.016544634476304,-0.0178184378892183,-0.0084232296794652
1.952839111328125,0.1165856308443471,0.0151807641275227,-0.1043178680866956,0.0128097301349043,-0.0055729039013385,0.0029178340919315
1.97289111328125,0.0333546091238036,-0.0524049446936696,0.1438964297592639,-0.0099043985828757,-0.0300533790141344,0.0039855986833572
1.992943115234375,0.0076801792390644,0.0061824149619787,0.0607522826045751,0.0030491068027913,-0.0294135566800832,-0.0008625225163996
2.0129951171875,-0.0881123640213161,-0.0162014124121516,-0.0111181908637285,0.0019570735748857,0.0046524256467819,-0.006668179295957
2.033047119140625,0.0705177071524783,0.0656879123758524,-0.1086024135380983,0.0241766944527626,-0.001950791105628,0.0085248621180653
2.05309912109375,0.0191457222357392,-0.025314620129019,0.2414613164544105,-0.0092305243015289,-0.0282672774046659,-0.0055297212675213
2.073151123046875,-0.0661720060983672,0.0035746436163783,0.1442471428930759,-0.0102111240848898,-0.0180418975651264,-0.0148927764967083
2.0932021484375,0.0083496759984642,0.053061143580079,0.0007084405303001,0.0043041738681495,-0.0003802748396992,-0.0037602484226226
2.11325390625,-0.0351762350603938,0.0236284206077456,-0.0621837767124176,0.0140962703153491,0.0130242444574832,-0.0142144262790679
2.13330615234375,0.033881519074738,0.012810673995316,0.0034796588093042,0.018263678997755,0.0069723962806165,-0.0013493406586349
2.153358154296875,0.0894080298550426,0.0269352801334112,0.0477355646431446,0.0243583191186189,-0.0007487130351364,0.011541174724698
2.17341015625,0.0574890795575454,0.0457329926490783,0.0403559757858514,0.0177566185593605,0.0067394422367215,0.0089562768116593
2.193462158203125,0.0048344344191253,0.0030624563105404,0.1437777718156576,0.0051976032555103,-0.0030878579709678,0.0069850645959377
2.21351416015625,0.0233113905478268,0.0276176363743841,0.1414484520852565,-0.0036247842945158,-0.018836423754692,0.0098777739331126
2.233566162109375,-0.0141613944845274,0.0347133667889982,0.0988625252902507,-0.0044459938071668,-0.002165698679164,0.0069558564573526
2.2536181640625,-0.0348622006751596,0.0207093182906508,-0.0625619623750448,0.0096809873357415,0.0052788057364523,0.0067495484836399
2.273669921875,0.0209007492095232,-0.011451076079905,-0.0343324777126312,0.0155627969652414,-0.0034190735314041,0.0066709243692457
2.293721923828125,-0.0592396130193024,-0.0164540719989687,0.0511707997888326,0.0163579732179641,-0.0044871186837553,0.008181357756257
2.31377392578125,-0.0326607816407457,-0.012697715140134,0.1262041212022304,0.0061143385246396,-0.0108681200072169,0.0055160224437713
2.333825927734375,-0.0122027712300419,-0.0264133020859211,0.0990443115979433,0.011308648623526,0.0053824577480554,0.0005598193965852
2.353878173828125,-0.0351784270174801,-0.0101158819533884,-0.042288989675045,0.0197771973907947,0.0101196411997079,-0.0058002024888992
2.37392919921875,0.0374505001353099,0.0392567823722958,0.0441682275503873,0.0127135524526238,0.0032330611720681,0.006557447835803
2.39398095703125,-0.0079384648490697,0.0159533559352159,0.1582043565750122,-0.0075987102463841,-0.0113176703453063,0.003413594327867
2.414032958984375,0.0259758605167269,0.0466145247239619,0.0976525649785995,-0.004910091869533,-3.15951183438e-05,0.0089336913079023
2.4340849609375,-0.0267623347193002,0.0064328095264732,-0.1393213769286871,0.0179778318852186,0.0148096997290849,0.0060431566089391
2.454136962890625,-0.0285863352760672,-0.0379372972715646,0.067763038149476,0.0110414531081914,-0.0112790456041693,0.0058569069951772
2.474189208984375,-0.0693718615856021,-0.0230610690485686,0.0888631093233823,0.0080050788819789,0.0010214997455477,-0.0033348470460623
2.4942412109375,-0.0436731740424409,-0.0091403149195015,-0.0154208564937114,0.0144153079017996,0.0172223076224327,-0.0151398405432701
2.514293212890625,0.0356570773798972,0.0008610007435083,0.0506423920005559,0.0110284890979528,0.0025569158606231,-0.0062325904145836
2.534344970703125,0.020414792323485,-0.012519216768071,0.1019406175613403,0.0026854185853153,-0.007087486796081,-0.0072545045986771
2.55439697265625,0.0276878520663827,0.0435135630339384,0.0157727386713027,0.0140563268214464,0.00979576818645,0.0028657391667366
2.574448974609375,-0.0076099635470658,-0.0318600962497293,0.1368389124631881,-0.0066222380846738,-0.016469158232212,-0.0084916371852159
2.594501220703125,-0.0167902451507747,0.0358103682454675,0.0348375046253204,0.0030244488734751,0.0014342400245368,0.0007200306281447
2.61455322265625,0.0552354919444769,0.0184293175946921,0.0109486795157194,0.0065992204472422,0.0032666390761733,0.0022515798918902
2.634605224609375,0.0076216174522414,-0.0239668587818741,-0.0170101715117692,0.0134496744722127,0.0022459207102656,-0.0007873706053942
2.6546572265625,-0.0519940623378381,-0.0694242493599653,0.0608937369018793,0.0052126543596386,-0.0114631243050098,-0.0090770255774259
2.6747080078125,-0.0260474644482135,-0.0274674873139709,0.0580073678106069,0.0101408679038286,0.0035842414945364,-0.0104161836206913
2.694760009765625,0.0045029374424368,0.0052420653719455,0.0864005186021328,0.0035929242148995,0.0158250275999307,-0.0024337875656783
2.714812255859375,0.0564666411746293,0.0239691238041967,0.1559159533768892,-0.002517141867429,3.92356887459e-05,-0.0031350846402347
2.7348642578125,0.118679570916295,0.0378537837065756,0.0414583840698003,-0.0047291587106883,-0.0055706412531435,0.0170207656919956
2.754916259765625,0.090044099268876,-0.0243524970985949,-0.0722942518383264,0.0088904313743114,-0.0097435172647237,0.0192352440208196
2.77496826171875,0.0161057700179517,-0.0405428766600787,-0.083434654533863,0.0267786849290132,-0.007742132525891,0.0092116314917802
2.79502001953125,-0.057762380073592,-0.0470058621291071,-0.0400660529285669,0.0398574844002723,0.0138027900829911,0.0106701925396919
2.81507177734375,-0.077938029878959,-0.0425271823450922,0.1666828465849161,0.0130692739039659,0.0036036102101206,-0.0040213847532868
2.8351240234375,-0.0528328512495383,-0.0134006757777184,0.2537958973705768,0.0003484338521957,0.0017321561463177,-0.0016525541432201
2.855176025390625,0.0709141956567764,0.0709337771400809,-0.0049263504862785,0.0078499922528862,0.012275107204914,0.0021750619634985
2.87522802734375,0.0716712245691567,0.0263652251604944,-0.0357569575577974,0.0167839210480451,0.0110022285953164,0.0114805847406387
2.895280029296875,0.0910407821560278,0.0617491846874356,-0.0416729036033153,0.0242971517145633,-0.001602747477591,0.0266524069011211
2.91533203125,0.0133326520428061,0.0025502690047025,0.1426122351676225,0.0096534993499517,0.0029912772588431,0.0232989378273487
2.93538427734375,-0.096223116697371,-0.0256136761408299,0.1794885521441698,-0.0044250208884477,0.0070498851127922,0.0040982929058372
2.95543505859375,-0.05482760526333,-0.0179777744349092,0.017648469415307,0.0114532588049769,0.0145189641043543,0.0060387407429516
2.975487060546875,-0.0153687609802931,-0.0159689188305288,0.0006634323447942,0.0056530847214162,-0.0017866683192551,-6.59800134599e-05
2.9955390625,0.0015197934458032,-0.011151654741913,0.1627665499240159,-0.0102951461449265,-0.0035471499431878,-0.0002312590368092
3.015591064453125,0.0264061051601544,0.030014833709225,-0.0295072495132684,0.0034147021360695,-0.001553835812956,0.0044230269268155
3.03564306640625,0.0333997999724,-0.0097535514470189,-0.0858423001974821,0.0208963006734848,0.0081048123538494,0.0044861007481813
3.055695068359375,0.0074050520921126,-0.0149607647012919,-0.0241764098793268,0.0233527235686779,0.001947155687958,0.0005473284982144
3.075747314453125,-0.0305280439283698,-0.0419855497490614,0.1683686077147722,0.0050448942929506,-0.0200185067951679,-0.0057167187333106
3.095799072265625,-0.0032609380247071,-0.025562092084065,0.1770242078572511,-0.0084080025553703,-0.0158661603927612,-0.0038578223902732
3.11585107421875,-0.0448313311016187,-0.0267298206891864,0.0234469265609979,-0.0024598985910415,0.0051618753932416,-0.0103868199512362
3.135903076171875,-0.0121073845641687,-0.0105543464358896,-0.0081342066168785,0.0080030616372823,0.0002067796885967,-0.0046290578320622
3.155955078125,0.0476787929546087,0.0374091817442327,-0.020818916144967,0.0204204935580492,0.0043750461190938,-0.0020203969907015
3.17600732421875,0.0239826408728957,0.0172271752633154,0.0647287850201129,0.0115150436758995,-0.0150682227686047,-0.003787258407101
3.196059326171875,-0.0041177740497514,0.0166075820602476,0.1214677403301,0.006368514150381,-0.0081917755305767,0.0063646086491644
3.216110107421875,0.0268241113765165,0.0239358791217207,0.089938045078516,0.0008609970100224,-0.0096509102731943,0.0237115025520324
3.236162109375,0.0258796701332554,0.0092768007807433,0.143165192875266,-0.0067963949404656,-0.0276166684925556,0.0229764878749847
3.256214111328125,0.0047143151707947,0.0047527474850416,0.1107785885334014,-0.0230292119085788,0.0055310945026576,0.0150498133152723
3.27626611328125,-0.0511967744803056,0.0014759908366948,-0.1095189438611269,0.0078583769500255,0.0200018920004367,-0.0018422824796289
3.296318115234375,-0.0144619483336806,-0.0309904738083481,0.0297357975721359,-0.0022716084495186,0.0184553824365139,-0.0055460100993514
3.3163701171875,-0.0101405049379914,-0.0081804569113999,0.0559504352807998,-0.001437249360606,0.0205934904515743,-0.0022143602836877
3.336422119140625,-0.0358157750729471,-0.024827348068729,0.1281990944117307,-0.0126130245625972,0.0150266448035836,-0.0061011668294668
3.356473876953125,-0.0556327476337552,-0.0311754749864339,0.0592652589172124,-0.0155535200610756,0.016068747267127,-0.0239444822072982
3.37652587890625,-0.0277405321016907,-0.0370108300764113,-0.064260582986474,0.0072113713249564,0.0155508667230606,-0.0257660411298275
3.396577880859375,0.046950734408386,-0.0549545561112463,-0.0204839851021766,0.0030569590162485,0.0044585475698113,-0.0136728258803486
3.416630126953125,0.0685593396263197,-0.0614861498370766,0.0306821385115385,0.0037651788443326,-0.012930255383253,-0.0079481732100248
3.43668212890625,0.0271336522497236,-0.01845423284024,0.0547539189726114,0.0098891789093613,-0.0013159974478185,-0.0045584919862449
3.456734130859375,0.0569241026185452,0.0113406014427542,0.0644856239140033,0.0124870259314775,0.0177452936768531,-0.0038783126510679
3.4767861328125,-0.0349205067336559,-0.0236786894902586,0.1531768838018178,-0.0088107101619243,0.0032967636361718,-0.0165228471159935
3.4968369140625,-0.0236170954961329,-0.0568749297145754,0.1654319697409868,-0.0183687284588813,0.0007015326991677,-0.0204749871045351
3.516888916015625,0.0581406753340736,-0.0260951760474592,-0.0284679695934057,0.0006636909674853,0.0001124734990298,-0.0019281993154436
3.53694091796875,0.0831890092097222,-0.0178255064826458,-0.07318272511065,0.0203950982540845,0.0101824179291725,0.0166625883430242
3.5569931640625,0.0583094560297206,-0.0112006815154105,-0.0692711046248674,0.0272270757704973,-0.0009646955877542,0.0160445794463157
3.577045166015625,-0.0198948235699906,-0.0516954081848263,0.1922340519487857,-0.0082683190703392,-0.0282581504434347,0.0025939675979316
3.59709716796875,-0.0417942284280434,-0.0136582307353615,0.2899269489377737,-0.020706346258521,-0.0317082777619361,-0.0005184686742722
3.617148681640625,0.0111950189596042,0.0649712885390967,-0.0266121125936508,-0.0176881868392229,-0.0034777035471051,0.0116545744240283
3.63720068359375,-0.0137775827987119,-0.0260036983717232,0.0076367784887552,-0.0047666239552199,-0.0004583965055644,-0.0019117232877761
3.6572529296875,-0.0580342558175325,-0.0120562754314392,-0.0565092382073402,0.0068048350512981,-0.0024058725684881,-0.0083500007167458
3.677304931640625,-0.003514949318394,-0.026693653397262,0.0409580333322286,0.0054939929395914,-0.0118297059088945,-0.0059788674116134
3.69735693359375,0.0478018348123878,-0.0122361620429903,0.1131418105334043,0.0054262215271592,-0.0091950083151459,0.0132278501987457
3.717408935546875,0.0451718881675973,-0.0176782069664448,0.0894920548766851,-0.0016562937526032,-0.0076371198520064,0.013472206890583
3.7374599609375,-0.0032236382216215,0.0126059452034533,0.0476215828746557,0.0018391660414636,0.0076855910010635,0.0061418656259775
3.75751171875,0.0684656334608793,0.0030126258194446,0.101295889917016,-0.0119035579264163,0.0018155016005039,0.006573349237442
3.777563720703125,-0.0229817932672798,-0.0240958919890224,0.0397463194549083,-0.0107372356578707,-0.0160297248512506,0.0044841510243713
3.797615966796875,0.0036180443666875,-0.0002083820536732,0.0902116013228893,-0.0233520306646823,-0.017052624374628,0.0125308837741613
3.81766796875,0.0016960998607799,-0.0077910192023962,-0.0115068979203701,-0.0098873358219861,-0.0106647443026304,0.0141295101493597
3.837719970703125,-0.0532154573589563,-0.0216715874515473,-0.0525356584012508,-0.0032780070323497,0.0043210657313466,0.0047097890637815
3.85777197265625,-0.0355049920907244,-0.040443507938832,0.0545060816913843,-0.0108267134055495,-0.0052806013263762,-0.0004259361885488
3.877823974609375,0.0032194004379212,-0.0095450963281095,0.1304442429900169,-0.0201595239341259,-0.0051633217372,0.0044615995138883
3.897875732421875,0.0384984017530456,-0.0283200124900788,0.063262804120779,-0.0210016760975122,0.0034944005310535,0.0084992088377475
3.917927734375,0.0193770467735826,-0.0363257704216986,0.0307382526129484,-0.0134531883522868,-0.0002403235994279,0.0073635531589388
3.937979736328125,0.0236269593030214,-0.068878305914998,0.0716612146317958,-0.0166198201477527,-0.001501290127635,0.0094770193099975
3.95803173828125,0.0428374173380434,-0.0314101605251431,0.0035772739648818,-0.0079597393050789,-0.0039719548076391,0.0190331898629665
3.9780830078125,0.0515187364436686,-0.0132887398358434,0.0049421325773,0.005547909066081,0.0047892294824123,0.02169144526124
3.998134765625,-0.0062162076337262,0.0038937925681471,-0.0763490801870822,0.0179829113185405,0.01040964666754,0.0157194174826145
4.0181865234375,0.0122252022575587,0.0053599926631897,0.0945125133872032,0.0093387421220541,-0.0036590027157217,0.0124997161328792
4.03823876953125,-0.0240036105956882,-0.0095911274269223,0.1754208643138408,-0.0122591461986303,-0.0068079549819231,0.0091438069939613
4.058290771484375,-0.0608178221214562,-0.0238476163163781,0.2224164242446422,-0.0322019606828689,-0.0072383219376206,0.0009066495113074
4.0783427734375,-0.0164501995414495,-0.0085074969086796,0.062919689771533,-0.0212634056806564,0.0013662166893482,0.0063548404723405
4.098394775390625,0.0432565560655668,0.0032910774346441,-0.1276139880001545,0.0060899183154106,0.0024529807269573,0.0098393373191356
4.11844677734375,-0.009830160347186,0.031518954661861,-0.0095043259263038,-0.0008362354710698,0.0044308197684586,0.0006416044197976
4.1384990234375,-0.0177818500040099,0.0546994853716343,0.1040232690542936,-0.0123609220609068,-0.00773032521829,-0.0061428491026163
4.158551025390625,0.0100815047597512,0.0211074507627636,0.0354261181682348,-0.0142161380499601,-0.00943249091506,0.0003030397929251
4.178602783203125,0.0507795354489237,0.0298084244169294,-0.1049509052932262,0.0125961266458034,0.0013907081447541,0.0085030831396579
4.19865478515625,0.0095600016362965,-0.0014777444023638,0.0186298816680908,0.0152534581720829,0.0060253054834902,0.006000941619277
4.218705810546875,-0.0672769351329654,0.0296498728543519,0.1237011984705925,-0.0015453203814104,0.0080390758812427,-0.0082767028361558
4.2387578125,-0.0637722149476408,0.0108466804459691,0.2254541845053434,-0.0216800887137651,0.0070153046399354,-0.0149210151284933
4.258809814453125,-0.0182488464612513,0.0184963914815336,0.1590209336549043,-0.0294721405953168,-0.0078506134450435,-0.0166047606617212
4.278862060546875,0.0250717512838542,0.0149715783562511,0.0109901805698871,-0.0152878798544406,-0.0254336018115282,-0.0050479732453823
4.298913818359375,0.0215361610362306,0.0284777603350579,-0.0534007507979869,-0.0173409096896648,0.0050902185030281,-0.0081761218607425
4.3189658203125,-0.0190356859900057,-0.0219579301122576,-0.0896054521232843,0.0111371707171201,-0.0041938377544283,-0.0115235783159732
4.339017822265625,0.040254634303227,0.0419068584896624,-0.1566349153012037,0.032742153853178,0.0045377155765891,-0.0070085488259792
4.35906982421875,0.0228333247072994,0.0303332520086318,0.1695709692418575,0.0116354674100875,0.0098655428737401,-0.0063315466977655
4.3791220703125,0.051082573516108,0.0387117157101631,0.2019704330652952,-0.0161131583154201,-0.0083409324288368,0.0052697919309139
4.399174072265625,-0.0193452633958309,-0.0128822779268026,0.0861988585501909,-0.0113849015906453,-0.0076631875708699,0.0012033516541123
4.419225830078125,0.0577687367491424,0.0206984315704554,0.0197942492723464,-0.0086611155420541,-0.0019658063538372,0.0144982300698757
4.43927685546875,0.0127152507968246,-0.0002118161197751,-0.0541688125610351,0.0058579151518642,-0.003483930369839,0.0116952173411846
4.459328857421875,-0.0339702202714979,-0.0342570013236254,0.040500352692604,0.001166661735624,-0.0088700912892818,0.0044802934862673
4.479380859375,-0.0172036847898736,0.016315905637294,0.0220873286455869,0.0009017335250973,-0.005312499590218,0.0067962035536766
4.499432861328125,0.0248854714641347,0.032111586792767,0.1138391451478004,-0.0029787851963192,-0.0107629038393497,0.0143591882660985
4.51948486328125,0.0076318465853109,-0.0107066143881529,0.167229374551773,-0.0245828498154878,-0.0066069900058209,0.0098407128825783
4.539536865234375,0.0041474020030349,0.0243025204770267,0.0949859761178493,-0.024318553507328,-0.002014500554651,0.0103135276585817
4.559588623046875,0.014387567923218,0.0405275329604744,-0.0141653034746646,-0.009285194799304,-0.0068700066767632,0.0175431501120328
4.579640625,0.0008303133442997,-0.0261311241436749,0.1049140804141759,-0.022174883633852,-0.0262867026031017,0.0184025168418884
4.599692626953125,0.0403661318536847,-0.0208230077981948,0.0856032307446002,-0.0255161095410585,-0.0265496522188186,0.0192713253200054
4.619745361328125,0.0243541045337915,0.0068071227315813,-0.1681529191374778,0.0160123240202665,-0.001546821091324,0.0181603841483593
4.639797607421875,-0.0049945203516632,-0.0601478869706392,-0.0511824902266263,0.0086450837552547,-0.0037024940829724,0.014682063832879
4.6598486328125,-0.0078012483354657,-0.0619979718167334,0.1248082829296588,-0.0026156594976782,-0.011059733107686,0.0077555780299007
4.679900634765625,-0.0345494083989411,-0.0511955689039081,0.1113198558032512,-0.0082621788606047,-0.0112621746957302,0.0035619754344224
4.699952392578125,-0.0599575154976919,-0.0395961703944951,0.0810369457423687,-0.0049608489498496,0.0034671346656978,-0.0033015664666891
4.72000439453125,0.0473752068981528,0.0230189104072749,-0.0159352357566356,0.0063767749816179,0.0058924248442053,0.0087454579770565
4.740056396484375,0.0879984918506815,0.0582398613922297,-0.0213461548894643,0.0086898300796747,0.0002321312204003,0.0151462368667125
4.7601083984375,0.0759965038897469,0.0288594531290233,0.1061871690899133,-0.0033686207607388,-0.0085420217365026,0.0184636935591697
4.78016064453125,-0.0269798864601179,0.0077588704984635,0.0494575661301612,-0.0021291710436344,0.0091242734342813,0.0120161287486553
4.800212646484375,-0.077375208364427,-0.0579467236645519,0.091290044209361,-0.0055651059374213,0.0055763069540262,0.0021786354482173
4.8202646484375,-0.057579388189502,-0.0389961586747318,0.031442016968131,0.0004008319228887,0.0093668866902589,0.0031241006217896
4.840316650390625,-0.0048860915411263,-0.006801131382212,0.0824579184561967,-0.0053017046302556,0.0043109883554279,0.0018661958165466
4.860368408203125,0.0265763836931437,-0.0234676770880818,0.1525724881678819,-0.0244342200458049,-0.0109558384865522,-0.0004026892129331
4.88042041015625,-0.0011987082652747,0.019720964840427,0.0134153618901967,-0.0075325686484575,0.001713893841952,-0.0014624986797571
4.9004716796875,0.0266623084109276,0.0617447277080267,-0.0371375982612371,0.0079867700114846,0.0212588030844926,0.0027001691050827
4.920523681640625,0.0161226846201345,-0.0063063336025923,0.0210825355172157,0.0017751895356923,0.0070773772895336,0.0004203217104077
4.94057568359375,-0.0327209143301472,-0.0536778141736984,0.0928477950453758,-0.0146305058151483,-0.0275984238833189,-0.0069320388138294
4.960627685546875,-0.0899686959451064,-0.0375531933248043,0.0966354968905448,-0.0099722761660814,-0.0175924766808748,-0.0137351956218481
4.980679443359375,-0.0920668007355183,0.0022924948513507,-0.0908931538462638,0.0173897501081228,0.023628082126379,-0.0153058338910341
5.000731201171875,0.0356191565223038,0.027133433054015,0.0059936874568462,0.0122318640351295,0.0062896548770368,-0.009572260081768
5.020783447265625,0.0195389593370258,0.001590776322782,0.1906049894422292,-0.0142436102032661,-0.0127730881795287,-0.0041706142947077
5.04083544921875,0.095534842172265,0.0595739595402032,0.0642734424680471,-0.0086739948019385,-0.0046517881564795,0.0129595678299665
5.060887451171875,-0.0048142684139311,-0.00236848269701,-0.0913999343246221,0.0084761548787355,0.0022914423607289,0.008154734969139
5.080939453125,-0.038696079749614,-0.0572959316056221,-0.0170183548182249,0.0109462505206465,-0.0079849492758512,0.0040640686638653
5.100990234375,-0.0807596997035667,-0.0620790011636912,0.0106441436111927,0.0165093131363391,-0.0143900662660598,-0.0073749562725424
5.121042236328125,-0.1509920140434056,-0.0553939704418182,0.1292956574767828,-0.0027203070931136,-0.010845398530364,-0.0280538685619831
5.141094482421875,-0.0451521970864385,0.0216493756197392,0.1332388421446085,-0.0032355433795601,-0.002989832079038,-0.0193997379392385
5.161146484375,0.0605628975123167,0.0613557283904403,0.0724970809340476,-0.0044687530025839,0.0035040094517171,-0.0085141966119408
5.181198486328125,0.1266475541207939,0.0277631092596799,0.1606330450266599,-0.0243658628314733,-0.0085047055035829,0.0031055700965225
5.20125048828125,0.0341852147290483,0.0008334551494568,0.1277139412432908,-0.0366270467638969,-0.0159025583416223,-0.0058480110019445
5.221302490234375,-0.0855642139084637,-0.0592998918391764,0.0028419454276561,-0.0277888271957635,-0.0023451526649296,-0.0162377506494522
5.241354736328125,-0.0223765573831275,-0.0526295472297817,-0.0631698651403188,-0.0068481117486953,0.0015278309583663,-0.0053452062420547
5.261406494140625,0.0060974035596475,-0.0153342011235654,-0.045204000338912,0.0015954209957271,-0.0030730662401765,-0.0071664741262793
5.28145849609375,0.0407758451657369,-0.001793167027086,0.1051449665606021,-0.0040639527142047,-0.0200362037867307,-0.0095014311373233
5.301509521484375,0.072819152495265,0.0584923017833381,0.0411374815523624,0.0005552612710744,-0.0044948370195925,0.0010930276475846
5.3215615234375,0.1106955864250659,0.0564483018003404,-0.0726543173223733,0.0114405192434787,-0.0056375875137746,0.0155548602342605
5.341613525390625,0.0658696256183087,-0.0027193419612944,0.1025420905858278,0.0002071398776024,-0.0212391950190067,0.017839191481471
5.36166552734375,-0.0189667854722589,0.0045074674870818,0.0527396565407514,0.0047713508829474,-0.0065251891501247,0.0104504395276308
5.381717529296875,-0.0249339502483606,-0.0012729425452649,-0.0448538717269897,0.0159287303686141,-0.0036532159429043,0.008176090195775
5.40176953125,-0.0009431991342455,-0.0183466808125376,0.0540419713109731,0.0100497510284185,-0.0027020066045224,0.0021176249720156
5.421821533203125,-0.0469920527994632,-0.0015649112291634,0.091816113910079,0.0045316270552575,-0.0035246473271399,-0.0069542462006211
5.44187353515625,-0.0057747840091586,0.0270917128041386,0.0379734645634889,0.0038015425670892,-0.0100571354851126,-0.0045859459787607
5.461925537109375,0.0307324073940515,0.0424034829001873,0.1323439391314983,0.0020513541530817,-0.005595345981419,0.0026579271070659
5.481977783203125,0.0463111213305965,0.0644392274890095,-0.0165022219896316,0.0109828114509582,0.0094115156680345,0.0128913391381502
5.502028564453125,0.0942448754269629,0.0434366984054446,0.0934568668544292,-0.0003370852209627,0.0036601098254323,0.0213452987372875
5.52208056640625,0.0176417108809575,-0.0313034852802753,0.1300350776672363,-0.0141634214669466,-0.0012067356146872,0.0089676845818758
5.542132568359375,-0.0656645680328831,-0.0353261649250984,0.0966401730656623,-0.0136495679616928,0.0061072595417499,0.0011870288290083
5.5621845703125,-0.037343788357824,0.0155254859119653,-0.085801383665204,0.0116996495053172,0.0031647630967199,0.0069115539081394
5.582236572265625,-0.0288909442458301,-0.0169609255425631,-0.021805589094758,0.0129372710362076,-0.0058965710923075,-0.0014251638203859
5.60228857421875,0.0219738583337515,0.0254997674375772,0.0912766002058982,0.0091766510158777,-0.0026287075597792,0.0022656093351542
5.622340576171875,0.0284114171005785,0.0769057642217725,0.0398041871219873,0.005231088027358,0.0019880356267094,0.0042484267614781
5.64239208984375,-0.055580359859392,-0.0147242525316774,0.1487614054471254,-0.009917052462697,-0.0024391722399741,-0.0052589979022741
5.662444091796875,-0.0247510679621249,0.021138795749098,0.0048474400311708,0.0013616906944662,0.0054417760111391,-0.0093674222007393
5.68249609375,-0.015142404878512,0.0293281666193157,-0.0685194094747305,0.0137459272518754,0.0076346951536834,-0.005590277723968
5.70254833984375,0.0228265296403318,-0.0071419807091355,0.0643038376063108,0.0062761316075921,-0.014446310698986,-0.0071861892938613
5.722599609375,0.0051969841212034,0.0193651371400803,0.0897018982350826,-0.0026639630086719,-0.0213080998510122,-0.0043161362409591
5.7426513671875,-0.0317893325684592,0.037748569766432,0.0212543849527835,0.0059836115688085,0.0016218097880482,-0.0085533112287521
5.762703125,-0.0374666840851306,0.0431754171207547,0.0359434200406074,0.0046215346083045,0.0011007818393409,-0.0113778226077556
5.782755126953125,0.0004562193349003,0.0352095528081059,0.1468868437469005,-0.0013260567793622,0.0011452580802142,-0.0088672032579779
5.80280712890625,0.0233937350690364,0.0176296185843646,0.100562899467349,-0.0016525357495993,0.0004526618868112,-0.0113781159743666
5.822859375,-0.0554429241500794,-0.0580084637891501,0.0753711750656366,-0.0135933607816696,-0.0081468289718031,-0.0213430970907211
5.842911376953125,0.0554248770367354,-0.0163081607222557,-0.0602905103117227,0.0045254556462168,0.0040336712263524,-0.0030690198764204
5.86296337890625,0.1138644622521474,0.0399182419557124,-0.192867673677206,0.0367791429162025,0.0061675799079239,0.0172750819474458
5.883015380859375,0.0369993588343262,-0.0356442178983241,0.0018605331748723,0.0352676473557949,0.0004510432481765,0.009003123268485
5.903066162109375,-0.0487675380393862,-0.0300755509205162,0.1649666903167962,0.0127432374283671,-0.0009914278052747,-0.0022088284604251
5.9231181640625,0.0262883970646187,0.0982380367163568,0.11191899074018,0.0213842391967773,0.0010454910807311,0.0134954033419489
5.943170166015625,-0.0231761833282187,0.047004108563438,0.141716163110733,-0.0002409748267382,-0.0072180004790425,0.0027919542044401
5.963222412109375,-0.0085794296337291,0.025846973440051,0.0573094486743211,0.0011432259343564,-0.0058018639683723,-0.0013586867135018
5.9832744140625,0.0231087441151961,0.0103211222019046,0.0028542203873395,0.0123863732442259,0.0029551107436418,0.0113658364862203
6.003326416015625,-0.0183253457635641,-0.0134231798704713,-0.0732195499897003,0.0312866754829883,0.002388063352555,0.0066284262575209
6.02337841796875,-0.0667559434661641,-0.0513619384467601,0.1602513522326946,0.0123639171943068,0.0063998689875006,-0.0029818667098879
6.04343017578125,0.0006038111120462,-0.005015928465873,0.1488034910231828,0.0066631454974412,0.0077092023566365,-0.0089023057371377
6.063482421875,0.0011812091412022,-0.0182937085162848,0.1551490606576204,-0.003998277708888,0.0091312071308493,-0.0135857742279767
6.083534423828125,0.0725291565727442,0.0335479032061994,0.0079331310868263,0.0049204733222723,0.0169114787131547,0.0018511437810957
6.10358544921875,0.063723736163415,0.0348754254829138,-0.0529401475489139,0.0155311683192849,0.0129357986152172,0.007038751617074
6.123637451171875,-0.0406452410560101,0.0179063896991312,0.0397708693742752,0.0097948713228106,-0.0039507113397121,-0.0037503340281546
6.143689453125,-0.1060593049265444,-0.0226887286048382,0.1387736799180507,-0.0008451752364635,-0.0005256496369838,-0.0184537060558795
6.1637412109375,-0.0512817858826369,-0.0029310119505971,0.0897907455623149,-0.0066133919171988,0.0006228070706129,-0.0150610618293285
6.183793212890625,-0.0051013417270034,0.0209652658130973,-0.0032604631006717,0.0007193656638264,0.0163121633231639,-0.0081432685256004
6.203845458984375,0.0731636185513809,-0.0024590105246752,0.0449789594113826,-0.0072015635669231,-0.0112175978720188,-0.0015342636033892
6.2238974609375,-0.0002334068970754,-0.0163728965215384,0.1037947209954261,-0.0138291260227561,-0.0088902814313769,-0.0109418127685785
6.243949462890625,0.0635041385959833,0.0491095564100891,-0.0668874243587255,0.0131720164790749,0.0139794088900089,0.0053324112668633
6.26400146484375,0.0772260091520845,0.0106332568909972,0.0032861820638179,0.0098484866321086,0.0026776711456477,0.0154171586036682
6.28405322265625,0.0432144704895094,-0.012253405438736,0.1717605882406234,-0.006940166465938,-0.0164941996335983,0.015507249161601
6.304104248046875,0.0057358402382582,-0.0255965058103203,0.0739011025130748,-0.0028918050229549,-0.0089104697108268,0.0119968438521027
6.324156494140625,-0.0680512805063277,-0.0548825868535786,0.0438514166861772,-0.0021359752863645,0.0095072444528341,0.0017395941540598
6.34420849609375,-0.0399292382737621,-0.027657091601938,0.0476753588885068,0.003788131289184,-0.0003868495114147,0.0010166564024984
6.364260498046875,-0.0120695002391934,-0.0560429358698427,0.1658271065384149,-0.0056952144950628,-0.0256234146654605,0.0050461310893297
6.384312255859375,0.0351508083581924,-0.0008330898232758,0.0004804769933223,0.0108479857444763,0.0020320694893598,0.0175636149942874
6.4043642578125,0.0013894450644031,-0.0400535587731748,-0.0458674326837062,0.0129092773422598,0.0013727424666285,0.0025159390643239
6.424416015625,-0.0346565220352262,-0.0263876561880111,0.1315361298799514,-0.005104505456984,0.000215127132833,-0.0029799053445458
6.44446826171875,0.006242109259963,-0.0027680034086108,0.1188087502539157,-0.0176699627190828,-0.0065622366964817,0.0013610105961561
6.464520263671875,-0.0183536220099776,0.0036368951976299,-0.0492693500816822,-0.0040497621521353,0.004200323484838,0.0008885827846825
6.4845712890625,0.0100081472625955,0.0267981366850435,-0.0756108290404081,0.0094187576323747,0.0008289664983749,0.0144151309505105
6.504623291015625,0.0250968126598745,0.0049712125413119,0.0563017329365015,0.0055845947936177,-0.0057294773869216,0.0137062314897775
6.52467529296875,-0.0818220317054539,-0.0412422571010887,0.1135766948193311,-0.0053685447201132,0.0079382844269275,0.0017740330658853
6.54472705078125,-0.0615247282817959,-0.0471847258273512,0.1041980410993099,-0.0107643604278564,0.0143287554383277,-0.006844273302704
6.564779296875,-0.0393275095209479,-0.0660811494771391,0.1333376263439655,-0.0174907017499208,0.001525945495814,-0.0085705509409308
6.584831298828125,0.0704817590562626,-0.0443408807035535,-0.0100081837952136,0.0007716689724475,0.007032174617052,0.0104361288249492
6.60488330078125,0.0924407120818272,0.0151420395523309,-0.059389177557826,0.0260465405881404,0.0062842778861522,0.0137461181730031
6.624934814453125,0.0426592842921614,-0.0267982097502797,0.0689928722053766,0.0234928708523511,0.0067204721271991,0.0095904041081666
6.64498681640625,-0.0205737457448616,-0.0181651867657899,0.1488835705220699,0.0054932823404669,0.0030655800364911,0.0037203254178166
6.66503759765625,-0.0013491495866328,0.0079643299426883,0.1897352208703756,-0.0073203556239604,0.0117285158485174,0.0117597542703151
6.68508984375,0.0124246338197961,-0.0201533649083226,0.0968938555657863,-0.0113712092861533,0.0070983138866722,0.006009129807353
6.705141845703125,-0.0226971676396206,-0.0128129390176385,-0.0272790520697832,0.0020236966665834,0.0063401833176612,0.0101852156221866
6.72519384765625,-0.008407141806744,-0.00398629315719,0.003405424529314,-0.0014233585679903,0.0091732796281576,0.012332527898252
6.745245849609375,0.0150146503129974,0.0010072042811661,0.0349947410136461,0.0042361505329608,0.010112827643752,0.0128157474100589
6.7652978515625,-0.0309383052296936,-0.0022679449319839,0.0272761294603347,0.006935435347259,0.0398617498576641,0.0223441161215305
6.785349853515625,0.0524165620662272,-0.0275785464730113,0.0149976626455783,-0.0053272312507033,0.0070673995651304,0.0121951308101415
6.805402099609375,-0.0342175460960716,-0.0208206697106361,0.0927425811052322,-0.0010167340515181,0.0027518291026353,0.0039455676451325
6.825453857421875,0.0167838884752243,-0.0293600961275398,0.1150397531092166,-0.0152218844741582,-0.00502933235839,0.0092907100915908
6.8455048828125,0.0045731166018173,-0.0203879043165594,0.0114157125055789,-0.0019814707338809,-0.001727104652673,0.0078681353479623
6.865556884765625,-0.0202821789197623,-0.0018371522992849,-0.0090916534721851,0.0144741795957088,0.0095871593803167,0.003863398451358
6.88560888671875,0.0207966677805408,-0.0024989772088825,-0.0087777652174234,0.0168259982019662,0.0035012844018638,0.0080659333616495
6.905660888671875,0.0072026979204267,-0.0248065975416451,0.2042687731355428,-0.0106108011677861,0.0001170011237263,0.0025709448382258
6.925713134765625,-0.0143861431511119,-0.0098038933947682,0.0893827492833137,-0.0187441650778055,-0.004139888100326,-0.0012922091409564
6.945764892578125,0.0037721754824742,0.0086176792848855,0.0922813933342695,-0.0178554635494947,-0.0253577530384063,0.0067108394578099
6.96581689453125,-0.0042504239860922,0.0320198168560862,-0.0763303754866123,0.0081160347908735,-0.0127452481538057,0.0079653766006231
6.985868896484375,0.0130044430017471,0.028015111259371,-0.0240980839461088,0.0032676446717232,0.0077378614805638,0.0104659646749496
7.0059208984375,0.0484365890519693,-0.0252511264387518,0.0420002358615398,0.0024231609422713,-0.0098538435995578,0.0112374648451805
7.025971923828125,-0.0070506126312538,-0.0356385918751359,0.0928822818368673,-0.0113901942968368,-0.0158524401485919,0.0038695903494954
7.04602392578125,0.0601013444151729,-0.0527484974343329,0.0519061283260583,0.0035875046160072,-0.0195366870611906,0.011339696124196
7.066075927734375,0.0257463626097887,-0.0274726018805056,0.0065413844674825,0.0065724612213671,0.0064028082415461,0.0043877037242054
7.0861279296875,0.0216539056643843,-0.0066686641089618,-0.0136129302889108,0.0110452454537153,0.0066500208340585,0.0055498890578746
7.106179931640625,0.0541830602820962,-0.0254296248108148,0.114112116870284,-0.0077397134155035,-0.0071321446448564,0.0044468864798545
7.12623193359375,-0.019133520341292,-0.0146428578585386,0.1191594633877277,-0.0165413040667772,-0.0113829486072063,-0.0038409756962209
7.146283935546875,-0.0038671237569302,-0.0136196522906422,0.0626321050018072,-0.0088931377977132,-0.0030350137967616,0.0122103011235594
7.1663359375,-0.018643143008463,0.062642114939168,-0.1039548799932003,0.0009295893833041,0.0084473062306642,-0.0007376784924417
7.186387939453125,-0.0439299618151038,-0.0084969755146652,0.0889133782058954,-0.0106743508949875,0.0020096991211175,-0.0160585269331932
7.20643896484375,0.0059544148923829,0.0202333713419735,0.0625286446273326,-0.0064028012566268,-0.0144267380237579,-0.0185647066682577
7.226490966796875,-0.0301403597850352,-0.0108889852177351,0.0063771338164806,-0.0033006509765982,-0.0066753523424267,-0.0220743492245674
7.24654296875,0.054624155113101,0.0178193690028041,-0.0297737914949655,0.0051709497347474,-0.0113180000334978,-0.0097786113619804
7.2665947265625,0.0651018561162054,0.0197260794069617,0.0349988326668739,0.0077239666134119,-0.0002729403786361,0.0002155387774109
7.286646728515625,0.065708553305082,-0.0167189334802329,0.0957283189177513,-0.0039507234469056,-0.0002685142681002,-0.0045659458264708
7.306698974609375,0.0289953179357573,-0.0543935612276196,0.1267249302059412,-0.0093370918184518,-0.0131252706050872,-0.0049870456568896
7.326750732421875,0.0377464143419638,0.0009947101257741,0.0169026194840669,0.0024195229634642,-0.0048802774399518,0.0014316113665699
7.346802734375,0.03219232387878,-0.0015749942317605,0.0056336219727993,0.0019109593704342,0.0008281976915895,0.0002517024986445
7.366853759765625,0.0222792710211128,-0.0240611860018223,0.0120808984160423,0.0073563251644372,0.0061012567020952,0.0019196402281522
7.38690576171875,0.0739254697693511,-0.0012079875502735,-0.0841150380134582,0.0263742394745349,0.0023418865166604,0.0153893269598484
7.406957763671875,-0.0020354878829792,-0.0408898634668439,0.0914320830285549,0.0137753626331686,-0.0138439368456602,0.0010596383363008
7.427010009765625,-0.0568142125032842,-0.0569783170238137,0.2560737791746855,-0.018945837393403,-0.028365159407258,-0.0104491952806711
7.447061767578125,-0.0372340443730354,0.006388020536676,0.0641027620762586,-0.0126705858856439,-0.001182806212455,-0.0169230159372091
7.46711376953125,0.0478552455000579,0.0382686481177806,-0.1101525655895471,0.0099589768797159,0.0060577006079256,-0.0049832956865429
7.487165771484375,0.0552496300676837,0.0222530406013131,0.001713818180561,0.0143281081691384,-0.009896146133542,-0.0039495551027357
7.5072177734375,0.0786604989346116,0.0534619794659316,0.0448544562488794,0.0157138630747795,-0.0102006793022155,0.0137139651924371
7.52727001953125,0.0411434363691136,0.0265288182243704,0.1149058975964784,0.001996889244765,-0.0114866383373737,0.0132592087611556
7.54732080078125,-0.0194886173892766,-0.0157927585460245,0.2183370459765195,-0.0159077439457178,-0.0169367771595716,0.006960290018469
7.567373046875,-0.0341927039157599,-0.0115788671780377,0.1351630882054567,-0.0203901045024395,-0.0023037001956254,0.0066247144713997
7.5874248046875,-0.0334030879080295,-0.0006556143645197,0.0441460157185792,-0.0191715080291032,-0.0046539604663848,-0.0066932113841176
7.607476806640625,-0.04271561758928,0.0215452576581388,0.0618698884576559,-0.0199383981525897,-0.006263053510338,-0.0092840623110532
7.62752978515625,-0.0381812986278906,-0.0076470806870609,0.0731570061475038,-0.0199512466788291,-0.0126083232462406,-0.0119517389684915
7.647581787109375,-0.0254791265083476,0.0007967033356428,0.0643681350141763,-0.0172863956540823,-0.0063453637994825,-0.0058593777939677
7.667634033203125,0.0798907348493114,0.0070246379397809,-0.0353472077131271,-0.0044083897955715,-0.0167286712676286,0.0151504818350076
7.68768603515625,-0.0241352010861039,-0.0288382642105221,-0.0325648835182189,-0.0151839423924684,-0.0039275027811527,-0.0021445823367685
7.707737060546875,-0.0526956712685525,0.0270241274606436,-0.0660989043295383,0.0023528633173555,-0.0027872684877365,-0.0019183183321729
7.727788818359375,0.0810902102995663,0.0278417274538427,0.06797931124866,-0.0057970779016613,-0.0173823051154613,0.0101658143103122
7.7478408203125,0.0504493901791051,0.0450073817882686,0.0288946705728769,0.0065556690096855,-0.0047632418572902,0.0151437278836965
7.767892822265625,0.0014276947155594,0.0116465255867689,0.0320534268647432,0.0008415901102125,-0.0078567694872617,0.0152545161545276
7.78794482421875,-0.0174432291667908,-0.0067291621245443,0.1156248595207929,-0.0030197023879736,-0.0136413294821977,0.0103669986128807
7.807996826171875,-0.0727080933362245,-0.0084450991969555,0.0995814872145652,-0.0060030459426343,-0.0236860681325197,0.0050076809711754
7.828048828125,-0.086717731325142,-0.010335808314383,0.0455757562607526,-0.0001122390385717,-3.61930578947e-05,-0.0051020667888224
7.848100830078125,-0.0401839071545749,0.001416442669183,-0.0065232642889022,0.0076023107394576,0.0054111187346279,-0.0120964823290705
7.86815185546875,0.0385181658994406,0.0345371334392577,0.088315412312746,0.0013087531551718,-0.0014682682231068,-0.0005211364477872
7.888203857421875,0.0735873603887855,0.0481372042465955,0.0700263069063425,-0.002290719654411,0.0009481632150709,0.0136833880096673
7.908255615234375,0.0550825664050877,-0.0229546129994094,0.1195809036701917,-0.0110480682924389,-0.0105264969170093,0.0159841366112232
7.928307861328125,-0.0024495485765859,-0.0082166242033243,0.0653057081252336,0.0018626605160534,0.0056107845157384,0.015739694237709
7.94835986328125,-0.0359923737488687,-0.0301353913489729,0.0492395394653081,-0.0054552485235035,0.0046417620033025,0.0133908279240131
7.968411865234375,-0.0253626239892095,-0.0627351269848644,0.1738467468649149,-0.0331267192959785,-0.0272324886173009,0.0085740908980369
7.988463623046875,-0.0191494485627859,-0.0132663088083267,-0.1021142205625772,-0.0023468625731766,-0.0120446868240833,0.0089744869619607
8.008515625,0.0177317272519692,0.0518320401765406,-0.2627525262862444,0.0357385538518428,-0.0006306739524006,0.0126855410635471
8.028566650390625,-0.0284829479668289,-0.0209318019349128,0.0834492675811052,0.017894884571433,-0.0141715137287974,0.0009221485815942
8.048618896484374,-0.0299567468464374,-0.0043569531004875,0.1670060871899127,0.0143683524802327,-0.0062501160427927,-0.0035994502250105
8.0686708984375,-0.016814283613488,-0.0014819091208279,0.1303875443667173,0.0069897836074233,-0.0076937642879784,0.0022899135947227
8.088722900390625,0.0380144176283851,-0.0006453852314502,0.2152893488436937,-0.0112271420657634,-0.0069151166826486,0.0067495224066078
8.10877490234375,0.0203914845131337,-0.0296056683864444,0.0203998139500617,-0.0086043663322925,-0.0062251738272607,0.0070966873317956
8.12882666015625,0.0035236440815031,-0.0470545966416597,-0.1351034669727087,0.0205125361680984,-0.0030028531327843,0.0029207500629127
8.148878662109375,-0.0213840026818215,-0.0465416786834597,0.0018546879559755,0.0151415625587105,-0.0071391626261174,0.0006620287895202
8.168930908203125,-0.0072039765620604,0.0277932121369987,0.0895312178432941,0.0143619813024997,-0.0147122927010059,0.001671677455306
8.18898193359375,-0.0149121032539755,0.0115201227281242,0.1749649372398853,-0.0031413638498634,-0.0007864097133278,0.0057071149349212
8.209033935546875,0.0896525061354041,0.0718085141479969,-0.026872809356451,0.0115463621914386,-0.0075556584633886,0.0097809480503201
8.2290859375,0.0132032535094767,0.0282013545464724,0.1253407823711633,-0.0005320035852491,-0.0032376537565141,0.0099729830399155
8.2491376953125,-0.0258040476137772,0.0175030695952475,0.061550739505887,-0.0030521631706506,-0.0095090083777904,0.0027518556453287
8.269189697265626,-0.0258239213580265,-0.0190409466870129,0.0596118803977966,-0.0048581631854176,-0.0047229062765836,0.0016638487577438
8.289241943359375,-0.0051232612978667,-0.0177897045169025,0.0181698629409074,0.0076534431427717,-0.0019530542194843,-0.0014779265038669
8.3092939453125,0.0260734756723046,-0.024441271360591,0.0797422297567129,0.0022046456579118,-0.0016876417212188,-0.0031584810931235
8.329345947265624,0.0827088610099628,0.0098809772189706,0.140923551428318,-0.0094743156805634,-0.0102342348545789,0.0080480901524424
8.34939794921875,0.0425552759284153,0.0560810028579086,0.0986415760159492,-0.0158292464911937,0.0140876974910497,0.0106053678318858
8.36944873046875,0.0811741987885907,0.0493282406620681,0.1632639780521392,-0.0363382808864116,0.0013090828433632,0.0229785330593585
8.389500732421874,0.0121340168427675,0.0189759916920214,-0.0463841500341892,-0.0220909602940082,-0.0129759907722473,0.0194279812276363
8.409552734375,-0.0304866524720564,0.0180389300376176,0.0035568156987428,-0.0158179607242345,-0.0064908252097666,0.0095522254705429
8.42960498046875,-0.1242043256871402,-0.0232212280463427,0.0398246453881263,-0.0226322896778583,-0.0051065031439065,-0.0085403639823198
8.449656982421875,-0.0728473556764423,0.0146535253830254,0.0825268920391798,-0.0164153221994638,-0.0021745879203081,7.24885612726e-05
8.469708984375,-0.0147225720312446,-0.0112415980476886,-0.0014379238486289,-0.0084408279508352,0.0009070574305951,-0.0092149749398231
8.489760986328125,-0.0583155204443261,-2.80570507049e-05,-0.0201964003324508,0.0008665432687848,0.0001010526902973,-0.0149885471910238
8.509812744140625,0.0775476423218846,0.0766615802023559,-0.0295212780386209,0.003658601315692,-0.0003266506828367,-0.0011148091871291
8.52986376953125,0.0845855416020378,0.0389461820531636,0.0496773463606834,0.0100232996046543,0.0024034986272454,0.0104944091290235
8.549916015625,0.014416355626285,0.0014467647422105,0.1458399650424718,-0.008452309295535,-0.0026588118635118,-0.0003982132766395
8.569968017578125,-0.0244850374370813,0.0193844263624399,0.018791794231534,0.0099285021424293,0.0076652485877275,-0.0003313745837658
8.59002001953125,-0.0547220990622416,-0.021388313530758,-0.011926584637165,0.0068491026759147,0.0129140205681324,-0.0119995325803756
8.610072021484376,-0.0523400627639144,-0.0194366680063307,0.143702368491888,-0.0038382776547223,-0.0058372332714498,-0.0115644596517086
8.63012353515625,0.0101841248840093,0.0446043539453297,0.0762438662469387,0.0007193316705524,0.0042888214811682,-0.0169944316148757
8.650175537109375,-0.0575472394855692,0.0714767249103635,-0.1834194618523121,0.0347276702523231,0.0259092040359973,-0.034190334379673
8.670227783203124,-0.1240089857781305,-0.0017020546775311,-0.0555114593416452,0.0325647257268428,0.0422902032732963,-0.0638864859938621
8.69027978515625,0.0316824015952646,0.0059366235073655,0.0935515594005584,0.0043253665789961,0.0088598113507032,-0.0673232972621917
8.7103310546875,0.1204533756557851,0.0221002611923962,0.167572488901019,-0.0439050197601318,-0.0281368941068649,-0.0874756872653961
8.7303828125,0.1219409473324194,0.0913289879802614,0.1127127714663743,-0.037423051893711,0.0039957310073077,-0.0858598053455352
8.7504345703125,0.1925959440637379,0.0283618058051913,0.0396019425481557,-0.01294422801584,-0.0172300636768341,-0.0243436098098754
8.770486572265625,0.0821818779937922,-0.1150461828500032,0.2919172459721565,-0.0562553368508815,-0.0733780339360237,-0.042781013995409
8.790538818359375,-0.0777610658768564,-0.1041843048349022,0.0623725772827863,-0.039285123348236,-0.0026652244850993,-0.0584130361676216
8.8105908203125,0.0786690840998664,0.0006154284846037,-0.1280599782019853,-0.0066631073132157,0.0278952121734619,-0.007881524041295
8.830642822265625,-0.0396065821906551,-0.1402156223546713,0.0042021278649568,-0.0367462523281574,-0.0676150321960449,-0.0340960249304771
8.85069482421875,-0.0178977314686402,-0.0615412410251796,0.3822872527271509,-0.0657497569918632,-0.0912330523133277,-0.0359010361135005
8.870745849609374,0.019927191469632,0.0373025064993649,-0.0589519551843404,-0.0185711253434419,-0.0026283003389835,-0.0115248626098036
8.890797607421876,0.0820235821595415,0.0381503555003553,-0.3112427086889743,0.0330613180994987,0.0071965535171329,0.0054735075682401
8.910849609375,0.0684135014148429,0.0144328683696687,-0.0945908393204212,0.0424074977636337,0.0185251496732234,0.0008307415992021
8.93090185546875,-0.0271659836167469,-0.0184346513569355,0.0769926387876272,0.0259787514805793,0.0111866351217031,-0.0223580189049243
8.950953857421876,-0.0506658094087615,-0.0686180475436151,0.3035369566172361,-0.0110028088092803,-0.0278761405497789,-0.0221165921539068
8.971005859375,0.1443772355461493,0.0317622618984431,0.1102379057854413,0.0076587349176406,-0.0097552854567766,0.0186458379030227
8.991057861328125,-0.0210145117823034,0.0172892076488584,-0.2787690105855465,0.0487241894006729,0.0486351624131202,0.0021727015264332
9.01110986328125,-0.0456103891827166,-0.010670958552882,-0.0760591573297977,0.0454226396977901,0.0384625233709812,-0.019162580370903
9.031161865234376,-0.0168992219505831,-0.0024852409444749,0.1410164904087781,0.0418923944234848,0.0097222635522484,-0.0114555265754461
9.051212890625,0.0209808652410283,0.0765611885678023,0.2072065801531076,0.0160928182303905,0.011839497834444,0.0066473009064793
9.071264892578125,0.0317022388068959,0.0928990137759596,0.1312812783360481,0.0131404343992471,0.0241533517837524,0.0113134421408176
9.09131689453125,-0.0412010848404839,0.0477737777616828,0.0456020597457885,0.027445076033473,0.0487679541110992,0.0042619071900844
9.111368896484375,-0.0198771052502095,0.0060606882784515,0.0234136088132858,0.0260635986924171,0.0338119938969612,0.00570784881711
9.1314208984375,-0.0648197147065773,-0.0468119469922035,0.1514548823148012,0.0092606414109468,0.0283044315874576,0.0069009782746434
9.15147265625,0.0657219973085448,-0.0012455430816859,0.0762374365061521,-0.004626648966223,0.0208970122039318,0.0236889123916625
9.17152490234375,0.0747593998428434,0.0250323691215366,0.0494119734227657,0.0552812069654464,-0.0214014425873756,0.0175146982073783
9.191576904296875,0.0777847390133887,-0.0349434492178261,0.2118020912498235,-0.0144164282828569,-0.0510333739221096,0.0094034504145383
9.21162890625,-0.1295961382606998,-0.0612955957010388,0.0362590618610382,-0.0306637808680534,-0.0141779361292719,-0.0144968153908848
9.231680908203124,-0.0723849623290821,-0.0725059948928654,0.0028226562052965,-0.0355773195624351,-0.0045677246525883,-0.025471419095993
9.25173193359375,-0.0921325959807261,-0.0229699566990137,-0.1808154168337583,0.0009840792044997,0.0172135736793279,-0.0244572442024946
9.27178369140625,-0.028869061207585,-0.0472968078996986,-0.1381669461965561,0.017713138833642,0.0036271810531616,-0.0344843827188015
9.2918359375,-0.0079367112834006,-0.0428079720478504,0.1830915450721979,-0.0038713351823389,-0.0185476709157228,-0.0323977172374725
