timestamp,acc_x,acc_y,acc_z,gyro_x,gyro_y,gyro_z
0.068910888671875,0.0271585857615806,-0.0421508233133703,-0.1267968263983726,0.0093639334663748,-0.027696980163455,0.0376968570053577
0.0889619140625,-0.1816317747179418,-0.0770769560702145,-0.1688940928936004,0.0434871800243854,-0.0044523677788674,-0.004758333787322
0.109013916015625,0.0574686578240245,0.045086876765266,0.0537853662014007,0.0336485654115676,0.0274521186947822,0.0138048063963651
0.12906494140625,0.0545051683759316,0.0684392569106072,0.0326075536161661,0.044967632740736,0.0302169285714626,0.0374887213110923
0.14911669921875,0.0041083486342802,-0.0147519442562013,0.1624690282821655,0.0262101553380489,-0.0106214769184589,0.0222161170095205
0.169168701171875,0.0091093535256572,0.0036691169667989,0.1727811634600162,0.0091977166011929,-0.0274281650781631,0.0099854255095124
0.189219970703125,-0.0640712344268336,0.000620031594485,0.0901508110463619,0.003941798582673,-0.009999455884099,-0.0053417081944644
0.209271728515625,-0.0400341599529609,-0.003995280181244,0.080273560154438,0.0059347571805119,-0.0057443892583251,-0.0082601550966501
0.229322998046875,-0.0149443067568354,-0.0246869166847318,0.1633943264335393,-0.0203548371791839,-0.010155557654798,-0.015808917582035
0.249375,0.0198028709702193,0.0021839929755777,-0.0172808051466941,-0.012299234047532,-0.0181581936776638,-0.0177080668509006
0.269426025390625,0.0609118205478414,0.0463506130907684,0.0172223529577255,-0.0084926933050155,-0.0126464739441871,-0.0018396996892988
0.28947802734375,0.0666453957637771,0.0390771880216896,-0.0392126509696245,-0.002819144167006,0.0056506306864321,0.0038352170959115
0.309530029296875,0.0457849420320242,-0.0154473061092197,0.0511783985733985,-0.0027197413146495,-0.0166093092411756,0.002648479770869
0.329580810546875,0.0174565087734721,0.0136266665533185,0.09017302287817,-0.0008439680095762,-0.0260807797312736,0.0092971883714199
0.3496328125,-0.0277233983037993,-0.0043149405896663,0.0131301152080297,-0.0011967581231147,0.0002456018701195,-0.0056061907671391
0.369683837890625,0.0335159919642843,-0.0319531082954257,0.0882622208207845,-0.0066303447820246,-0.0117106381803751,0.0044650682248175
0.38973583984375,-0.0051942076422274,-0.0375019015289843,-0.0037964696735143,0.009406485594809,-0.0031968809198588,0.0011664289049804
0.4097880859375,-0.0542511388159357,-0.0480618009228259,0.1584896032571792,-0.0125241018831729,-0.0106634423136711,-0.0057498314417898
0.4298388671875,0.0568961734320037,-0.0284255917564034,0.0872761323928833,-0.0178316552191972,-0.0253845881670713,0.001165413763374
0.449890869140625,0.0336953488528728,0.0087442282740026,-0.0600420885086059,-0.0009107643272727,-0.0045710830017924,0.0029804497025907
0.46994189453125,0.0057483709262683,-0.011904738131538,0.0207990424007177,0.0059528313577175,0.0038145971484482,-0.0001158502418547
0.489993896484375,0.0302406600880436,-0.0058240299783647,0.0635831221163272,0.0042964238673448,-0.0092921806499362,-0.0004751747474074
0.5100458984375,-0.0307668028539977,-0.0571980241890996,0.197985162821412,-0.0155364144593477,-0.0150343654677271,-0.0099996728822588
0.530096923828125,0.0383532941939309,-0.0093472356684505,0.1134896010577678,-0.0118608959019184,-0.0216692518442869,-0.0010930909775197
0.550148681640625,0.0075330623859539,-0.0199654411207884,-0.0626531477898359,0.0050685703754425,0.0065964218229055,0.0014507141895592
0.570199951171875,0.014323471444752,-0.0376786463353782,0.0258896435379982,0.0033044316805899,0.010346133261919,-0.0090090995654463
0.590251953125,0.0359916065638884,0.0318272899586707,0.0836117646664381,0.000745449680835,0.0019650412723422,-0.0030268277041614
0.61030419921875,0.032935032004863,-0.0065411652717739,0.1545247912794351,-0.0188545137643814,-0.0074985111132264,-0.0040543992072343
0.63035498046875,0.0980510810432024,0.0277422126021236,0.0036456630259752,-0.0056864470243453,-0.008689384907484,0.0162982437759637
0.650406982421875,0.0092961630683392,-0.014953531242907,-0.0481295323967933,0.0080089373514056,0.0150710418820381,0.0167778152972459
0.6704580078125,-0.0261391613196581,-0.06131890351139,0.0028068741142749,0.0164319146424531,0.0036132312379777,0.0094070173799991
0.690510009765625,-0.0947998606949113,-0.0798030930984765,0.1412795252591371,0.00930892303586,-0.0182864647358655,-0.0065907333046197
0.71056201171875,-0.0445670541422441,-0.0527202942531555,0.1858393824756145,-0.0090379510074853,-0.018117731437087,-0.0146184721961617
0.73061279296875,0.0296470050438307,0.0141920453511178,0.0708335316359996,-0.0069193765521049,0.0117252087220549,-0.0005069903563708
0.750664794921875,0.0601882372473366,0.0046726679861545,0.0186737208098173,-0.0031611295416951,0.0062613962218165,-0.0013852862175554
0.770717041015625,0.0474514504721388,-0.0211097157850861,0.071107087880373,-0.011455925181508,-0.0076295179314911,-0.0039177970029413
0.790767822265625,0.0503035885002464,-0.0256757085263729,-0.0855535463839769,0.0131020741537213,-0.0052067381329834,0.0112849064171314
0.810820068359375,0.0023808124556206,-0.0290678351826965,0.0374251830309629,0.012272035703063,0.0061410837806761,0.0167001448571681
0.830870849609375,-0.0483349553084,-0.0751722184274345,0.0644008682399988,0.0121724037453532,0.0004452913999557,0.0048217247240245
0.8509228515625,-0.0342430823961272,-0.0286399651594459,0.0404354707628488,0.018496012315154,0.004451657179743,-0.0017908720765262
0.870974853515625,-0.0486899610248394,-0.0439596263010054,0.1208721125245094,0.0064101107418537,-0.0004728431813418,-0.0121289985254406
0.89102587890625,0.0545785989383235,0.000942687677592,0.1726332794219255,-0.0115046733990311,-0.0208653043955564,0.0074888188391923
0.911077880859375,0.0119873931800015,0.0181474319133907,0.0650321518808603,-0.0066047576256096,-0.0137502988800406,0.0014291540719568
0.931129638671875,-0.0011119980962015,0.0169429514944553,0.1599105759710073,-0.0173292271792888,0.0072785234078764,0.003504226449877
0.951180908203125,0.0222903952033258,0.042208252589032,0.0159282214939594,-0.0002012660261243,0.0198899824172258,0.0088394628837704
0.971233154296875,0.0688566055398434,-0.0013224077101796,0.1358504859477281,-0.0085325520485639,0.0020575216040015,0.0191617794334888
0.991284912109375,0.0203947724487632,-0.043954292538762,0.1510246742039918,-0.0253619030117988,-0.0115027669817209,0.0142468716949224
1.011336181640625,0.0571553358248434,0.0100818335533142,0.0283323605149984,-0.0230768844485282,0.0022390075027942,0.0231845155358314
1.031387939453125,0.0250730299254879,-0.0187619105499237,0.094193948957324,-0.0293956771492958,-0.0065607638098299,0.0299424603581428
1.05143994140625,0.0574343171630054,-0.0056961658149957,0.0097410572916269,-0.0258228462189435,-0.0038337821606546,0.0351692102849483
1.071490966796875,-0.0499145161174237,-0.0217418762087821,-0.1538333018839359,0.0068125934340059,0.0003345976583659,0.0214028004556894
1.09154296875,-0.0872608800248242,-0.0643596594467759,0.0369324310779571,0.0070503847673535,-0.0110584935173392,0.0036329347640275
1.11159375,-0.0496164647526107,0.0009666530750691,-0.0295037423819303,0.0182734224945306,-0.0002992758527398,0.0004818835295736
1.131645751953125,-0.0619545710664242,-0.0238376063790172,0.0710807843953371,0.017172884196043,0.0053637358359992,-0.0024346392601728
1.151697998046875,-0.0037121889235451,-0.0166248985212296,0.0739116239070892,0.0188202261924743,0.0056349984370172,-0.0013266701716929
1.1717490234375,-0.0405862043451517,-0.0381693524617701,0.1582207231879234,0.0070449681952595,0.0010076444596052,-0.0193519163876771
1.191801025390625,0.0215757989268749,-0.0003121346890926,0.1599193437993526,-0.0087302774190902,0.0072520822286605,-0.0087125562131404
1.21185302734375,0.0420903618304058,0.0036738662071526,0.0924514892041683,-0.0144132878631353,0.0157154966145753,0.0027990518137812
1.23190380859375,0.0555012302085757,-0.0087544574070721,-0.0689987174242734,0.0149777047336101,0.0030726422555744,0.0004388950765132
1.251955810546875,0.022790197951626,0.0024077187288552,0.1604670408099889,-0.0088224168866872,0.0011101048439741,0.0052274786867201
1.2720078125,-0.0013106624734587,-0.0062138330135494,-0.1190039805650711,0.024063728749752,0.0028712414205074,-0.0001527641434222
1.292058837890625,-0.0043656843962147,-0.0432444637689739,0.1088163485497236,0.0032419573981314,0.0049971137195825,-0.0011582181323319
1.312111083984375,0.0043623416616581,-0.0058021834727376,0.0934615430295467,-0.0032466815318912,-0.003974141087383,0.0064524547196924
1.332162841796875,-0.0079400905505754,-0.0085571812693029,0.0778846191912889,-0.0011893780902028,-0.0017827502451837,0.0039634318090975
1.3522138671875,-0.0626308446264825,-0.0022976824831217,0.0745510908544063,-0.0002371224109083,0.000725036021322,-0.0139483623206615
1.372265869140625,-0.0092695125234313,0.0049713586717844,0.1364133805274963,-0.0135222114622592,-0.0089551750570535,-0.0138714909553527
1.39231787109375,0.0576751401815563,0.0242740250349044,0.0579974309384822,-0.0108863161876797,-0.0150732435286045,0.0021203835494816
1.412369140625,-0.001900280663371,0.0193462132439017,-0.0557838465422391,0.0010562385432422,0.0113745611160993,-0.0019203980918973
1.4324208984375,0.0563647517027333,-0.0044842327419668,0.0582283170849084,-0.0011043951380997,0.0221218708902597,0.0072169378399848
1.45247265625,0.0131342981928028,-0.0333268078014254,0.1319984866946935,-0.0075155869126319,0.0220576785504817,0.0056924200616776
1.47252490234375,0.020374259383697,-0.0437585507709532,0.2444803720146417,-0.0240005478262901,0.0006422488950192,0.0085139125585556
1.492576171875,0.0465494235984981,0.0064728492759168,0.0753606536716222,-0.030279641970992,0.0115394294261932,0.0164582468569278
1.512628173828125,0.0695262666960246,0.0410869934741407,-0.0438987629592418,-0.0189930852502584,0.0277047883719205,0.0288432165980339
1.5326806640625,0.0297253492433577,-0.0449685110826045,-0.0228548058867454,-0.0079796966165304,-0.0004979949444532,0.0256053451448678
1.552731689453125,-0.0129930082922801,-0.0576710485283285,-0.0718850865155458,0.0078632114455103,-0.0074753444641828,0.0186577681452035
1.572783447265625,-0.0692309370112605,-0.0421563032060861,-0.0461029950052499,0.0183018837124109,-0.0037612782325595,0.0111873522400856
1.59283544921875,-0.1164383678607642,-0.032679961265251,0.0488175146609544,0.0197622030973434,0.0032333070412278,0.0010173972696065
1.61288671875,-0.0743476407041773,-0.0218881528116762,0.1053641622692346,0.0075886505655944,0.0060046529397368,-0.0157345905900001
1.632938720703125,-0.0815408218775875,-0.0182396402414888,0.1205196458250284,-0.0082437973469495,0.0128173194825649,-0.0316974371671676
1.652990478515625,0.0736462875017896,0.0096365740038454,0.1002045875489711,0.0017618518322706,-0.0157273691147565,-0.0111738964915275
1.67304150390625,0.0607746040342375,0.034269349348545,0.0275046775192022,0.0078794620931148,0.0055691548623144,-0.003696022555232
1.693093505859375,0.0126102560523897,-0.014787161700055,-0.0310199921637773,0.0179177038371562,0.0185106452554464,-0.0094231190159916
1.713145751953125,0.0250644630265422,-0.0118698129486292,0.1650333258122205,0.0034523929934948,-0.0020924094133079,-0.0110632814466953
1.73319775390625,0.0199173641953617,0.0130929250027984,0.174075879445672,-0.0141415251418948,-0.0032507597934454,-0.003976578824222
1.75324853515625,-0.0311421755050308,0.0221915196724236,0.0018827450066804,0.000645596999675,0.0126342251896858,-0.0076263779774308
1.773300537109375,-0.0433745016231201,-0.0007392009947448,0.0075835869967937,0.0013769401703029,0.0164150781929492,-0.0214658714830875
1.7933525390625,-0.0312664412055164,-0.001173866084963,0.0943061771601438,-0.0106185041368007,-0.0116342911496758,-0.0213408730924129
1.813403564453125,0.038553639071621,0.0320066651135683,0.0442868854939937,-0.0120736379176378,-0.0234965980052948,-0.0133857931941747
1.83345556640625,-0.0044271687924861,0.0119512806870043,-0.1343459266036749,0.0185602977871894,-0.0024431936908513,-0.0154766719788312
1.8535078125,0.0640381541411392,0.0134207687176764,0.0108428810536861,0.0140588404610753,0.001689541619271,-0.0064204046502709
1.8735595703125,0.0557500173378735,-0.0025692659661173,0.1132511161267757,0.0001077342312783,-0.0091718193143606,0.0005811075679957
1.893610595703125,0.0126437016642652,-0.0225803728595376,0.1175584579318761,-0.0029680519364774,-0.0094477115198969,-0.0060987737961113
1.91366259765625,0.0234030326203443,-0.0142091426163911,0.0602706365674734,0.0046326946467161,0.0010880623012781,-0.0058746137656271
1.933714599609375,0.0072037208337336,-0.023130554088205,0.0546884525209665,0.0001803536433726,0.0047799069434404,-0.0086709018796682
1.953765625,0.0390025518829003,-0.0472904512241482,0.0407861838966608,-0.000584176974371,-0.0095806317403912,-0.0062319943681359
1.9738173828125,0.0185713198812678,-0.0308048881083726,0.0785761085867881,0.0023168104235082,-0.0263781826943159,0.0003209640271961
1.993869384765625,-0.052240785374213,0.0067149874687194,0.0305249021232128,0.008447129279375,0.0085306568071246,-0.010080512613058
2.01392041015625,0.0154066453052684,0.0024633944388478,0.0478249964922666,0.0074094552546739,0.0076605435460805,-0.0054134475067257
2.03397265625,-0.0107843557994812,-0.0089047525979578,0.1553758551508188,-0.0063232146203517,-4.76804561913e-05,-0.0047617093659937
2.054024658203125,0.0225504161126911,-0.0077025372013449,0.1489437762767076,-0.0136052556335926,-0.0001810463145375,-0.0091014709323644
2.07407666015625,0.0275630566429346,0.0021743483643978,0.0002490063250064,-0.0107138715684413,0.0097071304917335,-0.0110956151038408
2.09412744140625,0.0362311326744966,-0.0389279888093471,0.0522889901638031,-0.0098020853474736,-0.0182701479643583,-0.0053929258137941
2.114179443359375,0.0648986434279941,-0.0105903675973415,0.0210503868132829,-0.0046132733114063,-0.0065054800361394,0.0113400742411613
2.1342314453125,0.1224462847723625,-0.0057770490314811,0.0084743983566761,0.0024687475524842,0.010158447548747,0.0232027806341648
2.15428369140625,-0.0153925802472978,-0.0459249350246042,0.0662462038457393,-0.0044738198630511,-0.004712822381407,0.0010683732107281
2.17433447265625,0.0274005412912927,-0.0166634769659489,0.0099625910878181,-0.0106460135430097,-0.0204322803765535,0.0081414459273219
2.194386474609375,0.0467964571621268,0.0262996856436133,-0.1610796197503805,0.0239513926208019,-0.0085916789248585,0.0159222651273012
2.2144384765625,-0.0280914278985932,-0.009479776006937,0.0589998859792947,0.0197601523250341,-0.0015222849324345,0.0055991928093135
2.234489501953125,0.0506445656913332,-0.0059377194859087,0.0882160435914993,0.0138472318649292,-0.0083190221339464,0.0126849543303251
2.25454150390625,-0.0319974771601147,-0.0032028876945376,0.2186988650262355,-0.0139437485486269,-0.0001251907087862,0.0073976251296699
2.274593505859375,0.0038619178588502,-0.0280753900792449,0.2157096200823783,-0.0287714507430791,-0.0203431285917758,0.007678385823965
2.294645263671875,-0.0694685816920362,-0.0090747754026204,-0.0836690478116273,-0.0091597363352775,0.0034145708195865,-0.0067191645503044
2.3146962890625,0.0419532549146562,-0.0420368415448814,-0.0224000478565692,0.0001396648585796,-0.001547809690237,-0.0037302046548575
2.33474853515625,-0.0011532616883516,-0.0248433493554592,-0.0268301392585039,0.0081085506826639,0.0042931898497045,-0.0056204223074018
2.354800537109375,0.0689040066118352,-0.003976940806955,0.0563718755632638,0.0097395777702331,-0.0021593256387859,0.0032019559293985
2.374851806640625,0.0307778722372837,-0.021945947413519,0.1542705242574215,-0.005336002446711,-0.0154689969494938,-0.0013762356247752
2.394903564453125,0.0060394445610232,0.0306210559740662,0.1069096381455659,-0.0108217466622591,0.0091886650770902,-0.0004059055354446
2.414955322265625,0.0316273469397798,-0.0063631783563643,0.028075755405426,-0.0070012500509619,-0.0056727388873696,0.0064267464913427
2.43500732421875,-0.0607641922380775,-0.0528100183632224,0.029328970336914,-0.00671779923141,-0.0193982906639575,-0.0063551883213222
2.45505859375,0.022313319421187,0.0416763376694172,-0.1127881747901439,0.0207170061767101,0.0142263015732169,0.0064378855749964
2.475110595703125,-0.0043561676491983,-0.044747927134484,0.1828659196227788,0.003990669734776,-0.0031162449158728,0.0026613352820277
2.49516259765625,-0.0217836329912766,-0.0332769042450934,0.1522445713877677,-0.0057282475754618,-0.0080883502960205,-0.0066185127943754
2.51521435546875,-0.0363497540854848,-0.0070150663938373,0.0795657041460275,-0.0105324890464544,5.9578102082e-05,-0.0082703307271003
2.535264892578125,0.0290570945929735,0.0258232272382825,0.0190834706544876,0.0005905106663703,0.0017237961292266,0.0005274703726172
2.555317138671875,0.0211496094040572,0.0058214726950973,0.0681774641692638,-0.0057071074843406,-0.0005079414695501,-0.0030284305103123
2.575369140625,0.0319867913693189,0.0114082598514854,0.029015666604042,-0.0037667611613869,-0.0017379466444253,0.0012737340293824
2.595419921875,0.0039215390915982,-0.0011225012239068,-0.0149240128874778,0.0051324688829481,-0.0038723286706954,0.0011669099330902
2.615471923828125,-0.1054764270046725,-0.0314605755381286,0.0333586642444133,0.0021131467074155,0.0089221131056547,-0.0091998670250177
2.63552392578125,-0.0269804344493895,-0.0124026046510785,0.0628209055721759,0.0007247612811625,-0.0035020371433347,-0.0073331948369741
2.655575927734375,-0.0379504672803916,-0.0485119558431208,0.185148477602005,-0.0190013796091079,-0.0190996974706649,-0.0197002403438091
2.675626953125,0.0538145557632669,0.066964873509109,-0.1004705450087785,0.0061090230010449,0.0159731935709714,-0.005227527115494
2.695678955078125,0.0414579456783831,-0.0656010378099977,0.2122667861521243,-0.0258677974343299,-0.0193850472569465,-0.0060329302214086
2.71573095703125,0.0827092263361439,0.0513586505111306,-0.0371983885377645,-0.0026928896550089,0.0001827664673328,0.0111100412905216
2.735782958984375,0.0405995752833783,-0.0166475487444549,-0.0681833093881607,0.0169232469052076,0.0165304280817508,0.011677467264235
2.755833984375,-0.0318012604682706,-0.0977865666218101,0.2205582291573286,-0.0205312594771385,-0.0227966383099555,-0.0006779555696994
2.775885986328125,-0.002148757265415,0.0086501933149993,-0.0719470458358526,0.0074135134927928,-0.0077916234731674,0.0103955939412117
2.79593798828125,-0.0170994206978008,-0.0783742293391376,0.1502256327807903,-0.0088843880221247,-0.0179538503289222,-0.0012303262483328
2.815989990234375,-0.0880835945845581,-0.0116166419051587,-0.0459369907885789,0.0034931751433759,0.0022562034428119,-0.0141484905034303
2.836040771484375,0.0059067032931372,-0.0363016588937491,0.144826988607645,-0.0087919980287551,-0.0085132289677858,-0.0117058064788579
2.856093017578125,-0.0134186498258262,-0.0102589436858892,0.1137397764265537,-0.0223353952169418,-0.0083563094958662,-0.0079764574766159
2.87614501953125,0.0648466940450482,0.0614370499983429,-0.0667722735464572,0.0016740716528147,0.0168567039072513,0.0034708580933511
2.896197021484375,0.0030258871598169,0.002291910329461,0.0039922845065593,0.0058514256961643,0.0223236717283725,-0.0087532550096511
2.916248046875,0.0106015831110998,-0.0419805813129991,0.1494265913575887,-0.0058456137776374,-0.0080023594200611,-0.0102109126746654
2.9362998046875,0.0209914414339698,-0.0043073418051004,0.0956470703750848,-0.0167330168187618,-0.0214773006737232,0.0025011077523231
2.956351806640625,0.0116318394742906,-0.0043023003038018,-0.0104097503334283,-0.0166064612567424,-0.0069216196425259,0.0030855135992169
2.97640283203125,-0.0382790964465588,-0.0109126583542674,-0.0925578721880912,0.0119474697858095,0.0014086319133639,0.002727601211518
2.996454833984375,-0.0153772730803117,-0.0047561084859073,0.1193576163083314,0.0021594478748738,0.0100979357957839,-0.0010811099782586
3.016507080078125,-0.0141177928048186,0.0276377293143421,0.1659784977078437,-0.0085547259077429,0.0029296311549842,-0.0017564557492733
3.03655908203125,0.0185874672984704,-0.0185563780404627,0.2304845798879861,-0.035272479057312,-0.005826290231198,-0.0029487391002476
3.05660986328125,0.0038347741235978,-0.0229023713555187,-0.0600116933703422,-0.015324885956943,0.0003528296947479,-0.0065514161251485
3.076661865234375,0.0084813395541161,-0.0293188873343169,-0.0183083946287631,-0.0167644470930099,0.0027579274028539,-0.0024872433859854
3.0967138671875,0.0154807334547862,-0.0253235340878367,-0.0447089102983474,-0.0007952332962304,-0.0050619253888726,-0.0007802825421094
3.116765869140625,-0.0677146689631044,-0.0097058398477733,-0.0210310975909233,0.0101520577445626,0.0147099029272794,-0.0110397040843963
3.136816650390625,-0.0185180918566882,0.0279253871493041,0.0968693056464195,0.0054680788889527,0.0064630159176886,-0.0084508135914802
3.156868896484375,0.0183773316791281,0.0254666688855737,0.1812163988500833,-0.011128750629723,-0.0166301932185888,-0.008536534383893
3.1769208984375,0.0198773975111544,0.0486639315344393,0.1504541808396577,-0.0272670313715934,-0.0072305211797356,-0.0060379588976502
3.196972900390625,0.0122650228112936,0.0151051416080445,-0.0416366632461547,-0.0072724726051092,0.0040404796600341,-0.0010304788593202
3.21702392578125,-0.0156115567602217,-0.0242518862683326,-0.0490694435954093,0.0057390877045691,0.0059104226529598,-0.0004185938742011
3.237075927734375,-0.0787617673519998,-0.0707077863644808,0.0585673397809267,0.001380777452141,-0.0043470878154039,-0.0152172800153493
3.2571279296875,-0.012831826381199,-0.021882892114669,0.1159071835935115,-0.0083581637591123,-0.0100372843444347,-0.0123002398759126
3.2771796875,0.014238916700147,0.0293049318742007,-0.013207856619358,0.0026252348907291,0.0082915145903825,-0.0129255186766386
3.29723095703125,0.0486305041888728,0.0176897512737661,0.1237497137874364,-0.0043436400592327,0.0042440826073288,-0.0064919325523078
3.317282958984375,0.0586004018003121,0.0227288414195179,0.1119768584072589,-0.0121723320335149,-0.0046335887163877,-0.0038809548132121
3.3373349609375,-0.0103550244715064,-0.004164426203072,0.020652911928296,-0.0114878034219145,-0.0031071491539478,-0.0044030440039932
3.357386962890625,-0.0273587662424892,0.0009410071771591,-0.039442952594161,0.0011874844785779,-0.0001599150709807,-0.009594265371561
3.37743798828125,-0.017104352601245,-0.0129104080427438,0.0327338103443384,-0.0002163473982363,-0.0004674815572798,-0.0068058725446462
3.397489990234375,-0.0472389037000015,-0.040682285130769,0.0877928497433662,-0.0028631777968257,-0.009429776109755,-0.0159328710287809
3.417541748046875,-0.0190717619503848,-0.001779649958387,0.0644365240752697,-0.0049613812007009,-0.0080377543345093,-0.0180057343095541
3.437593994140625,0.0370276533470489,0.056338996206969,-0.0253998141944408,0.0019813203252851,0.0182921774685382,-0.0036306648980826
3.457645263671875,0.0246778748617507,-0.0012293956644833,0.0116401689112186,0.0130742276087403,0.0108212223276495,-0.0074248220771551
3.477697265625,0.0184553288187831,-0.0205583655126392,0.12443301987648,-0.0064173256978392,-0.0018362463451921,-0.0083808191120624
3.497748779296875,0.0252985457770526,-0.0125574298866093,0.0643307256132364,-0.0035776135046035,-0.0104800146073102,-0.0002932844217866
3.51780078125,-0.0257756800358183,-0.0019631167665123,0.0286252059817314,-0.0019129565916955,0.0074387579225003,-0.0085034659132361
3.53785205078125,-0.0253734193778596,-0.0294934401836246,-0.0235807820737361,0.0075834444724023,0.0058847903273999,-0.0130786355584859
3.557904052734375,-0.0171611060234718,-0.0255878841124474,0.0749970810562372,0.0003591093700379,-0.0021792449988424,-0.0132150528952479
3.5779560546875,0.0665480728691443,0.037292496562004,0.0172872348874807,0.0104821193963289,0.0029090866446495,0.0003052526153624
3.598008056640625,0.010536829045508,0.022484511269629,0.0456073204427957,0.0142797492444515,0.0086245350539684,-0.0018267631530761
3.61805908203125,-0.0307408646951429,-0.015582915187627,0.08875555729568,0.002128395717591,0.0066731688566505,-0.0110036572441458
3.638111083984375,-0.0101786632576026,-0.0110232791218906,0.0523515340059995,0.004966702312231,-0.0056949299760162,-0.0108573548495769
3.6581630859375,-0.0371277527206577,-0.0283454391922801,0.0960305167347192,-0.0001908442936837,-0.0021769893355667,-0.0118735879659652
3.678215087890625,-0.0312927081579342,-0.0092390260536223,0.0161181911081075,0.0041526318527758,0.0085976775735616,-0.013153264299035
3.698265869140625,0.0075496481945738,0.0076719959326088,0.0148380881696939,0.0101341232657432,0.0067738364450633,-0.0178431868553161
3.71831787109375,0.0041465982854366,0.0317743176624178,0.03047404871881,0.006978528574109,0.006023412104696,-0.0227731838822364
3.7383701171875,0.0930407603342086,0.0693861093066632,0.036223990547657,0.0088093886151909,0.0040577072650194,-0.0063380030915141
3.758421142578125,0.069636248142831,0.038607378552854,0.0500426725417375,0.0030332524329423,-0.0107732405886054,-9.7837764769e-06
3.77847314453125,0.0458595416381955,0.0532973634887486,-0.0681862319976091,0.0223407857120037,-0.0013961838558316,0.0104419654235243
3.798525146484375,-0.0370027015688829,0.0135490712724626,0.0232078571081161,0.0266174878925085,0.0079958904534578,0.0041963504627346
3.818576904296875,-0.0201760881967842,0.0161685330558568,0.1273112056612968,0.0156886745244264,0.0025598467327654,0.0019023031927645
3.83862890625,-0.0256053284375928,-0.0130503279700875,0.2166489467591047,-0.0087313847616314,-0.0034729877952486,-0.0058246059343218
3.858679931640625,0.0036157428117468,0.0560332912586629,0.0448679002523422,-0.0005027963779866,0.0082783969119191,-0.0032821195200085
3.87873193359375,0.028872531806305,0.0294317000590264,-0.0046674072891473,0.0123256100341677,0.0089982412755489,0.0084349429234862
3.8987841796875,-0.0237212134577333,-0.0444391534462571,0.1444727683424949,-0.0085228644311428,-0.0210440624505281,-0.0062142107635736
3.918836181640625,0.0098587471208535,-0.0127479109574109,-0.0263332956522703,0.0051537519320845,-0.0298008807003498,-0.0029630572535097
3.938886962890625,0.0048971609244123,0.0645163843784481,-0.1063151793837547,0.0283260606229305,0.0172419901937246,0.0054742926731705
3.95893896484375,-0.0705292149271816,0.0040530017178505,0.0531061517655849,0.0196443684399127,0.009760221466422,-0.0105638122186064
3.978990966796875,-0.0400812687640078,0.0435166317738592,0.086398180514574,0.0148926377296447,-0.0019685390871018,-0.0162811800837516
3.9990419921875,0.0358569108009338,0.0509163866363465,0.0801513950794935,0.0052926675416529,-0.0022659141104668,-0.0083113573491573
4.019093994140625,0.0903532017506659,0.0666135027881711,-0.0131716162621974,0.0130240796133875,0.0041052913293242,0.0070892018266022
4.03914599609375,-0.0043725707947276,0.0295707432035356,0.0564484479308128,0.009824376553297,0.0079027339816093,0.0030941157601773
4.059197998046875,-0.0284469633379951,0.0137610335227102,0.0938999344468116,0.0078250952064991,0.0014388961717486,-0.0004324747715145
4.07925,-0.0275785830056294,0.0092643066253513,0.0540554153144359,0.0073558767326176,0.0117063168436288,-0.0055065145716071
4.099301025390625,-0.0059577758932486,0.0363020242199301,-0.0415361254811286,0.0207158103585243,0.0060098427347838,-0.0029263824690133
4.11935302734375,-0.0231194116396829,0.0218855955284088,0.1979734723836183,-0.0069763716310262,-0.0047096349298954,-0.0108552854508161
4.139405029296875,0.0286277815313078,0.096530209885165,0.0132785837680101,0.0014389723073691,0.0229153521358966,0.0001110155135393
4.159456787109375,-0.0110496739384718,-0.0142721248500049,-0.0032388357907533,0.0091103995218873,-0.000412241090089,-0.0087354276329278
4.1795078125,-0.0497102987822145,-0.0199549927920103,0.0871644887119531,0.0010263312142342,-0.0028368160128593,-0.017894709482789
4.19956005859375,0.0173542539753951,0.0088613518476486,-0.0411965182632207,0.0146939354017376,0.0062884585931897,-0.0118319168686866
4.219612060546875,0.0573898934993892,0.0044180356379598,0.0908452230513095,0.0090379565954208,0.0086243255063891,-0.0039180191233754
4.2396640625,0.0519642882540822,0.0084587623961269,-0.0024906477719545,0.0213200971484184,0.0113912364467978,-0.003246808424592
4.25971484375,0.0726906307447701,0.000837692933157,0.0935012905180454,0.0092483200132846,-0.0012720674276351,0.0071192663162946
4.279766845703125,0.0737289608165621,0.0012830986130982,0.1082587146669626,-0.0031274114735424,-0.0184183157980442,0.0149586107581853
4.29981884765625,-0.0022003230558708,-0.0096947339318692,0.0055313306421041,0.0083202123641967,0.00236881012097,0.0069341599009931
4.319870849609375,-0.046308527514711,-0.0787866095323115,-0.0465109912842512,0.02044009976089,0.0065002301707863,0.0004777158610522
4.339921875,-0.0173585282917134,-0.0661002925690263,0.0790203452229499,0.0197207853198051,-0.0078030051663517,-0.0036509979981929
4.35997412109375,-0.0040831411277875,-0.0075269614387303,0.012846037569642,0.0321051999926567,0.0070385546423494,-0.0063889315351843
4.38002587890625,0.0171017222527414,0.0115972796175628,0.0241916074484586,0.0280032157897949,0.0073714205063879,-0.006548517383635
4.400077880859375,0.0304888078965246,0.027647739251703,0.1097153432160615,0.0168018527328968,-0.0033617087174206,-0.0059025594964623
4.42012890625,0.054077280086372,0.0181703743975609,0.1099088199615478,0.0110569046810269,-0.0085191698744893,-0.0011339667253196
4.440180908203125,0.004824278351292,-0.0007028145071119,0.1169610765606164,-0.0010168827138841,-0.0066317585296928,0.0036571226082742
4.46023291015625,-0.0220126742404885,-0.0388188293464481,-0.0031301147192716,0.0162468925118446,0.0014240243472158,-0.0031710821203887
4.48028515625,-0.0235995050405152,-0.0446128295127302,0.0073918638169765,0.020472839474678,0.005895746871829,-0.0051356460899114
4.5003359375,0.0206718906234018,-0.0458283427823334,0.0150368256121873,0.0183824449777603,-0.007419763598591,-0.001903039868921
4.520387939453125,0.0365065155497752,0.0296896203428506,0.0601192453980445,0.0187504813075065,0.0006577288731932,0.0055463868193328
4.540440185546875,0.0330205913964659,-0.0041236558012664,0.1353682553887367,0.0050610108301043,0.0136477667838335,0.0036053783260285
4.5604921875,0.0435477758307941,0.0238121066115796,0.0756540836602449,0.0079026566818356,0.0067314221523702,0.0066965259611606
4.580543212890625,0.0383376947659999,0.0053190030656754,0.1126847144156694,-0.0074890302494168,-0.0190739259123802,0.0135909356176853
4.600594970703125,-0.0562732740269973,-0.0588200724329799,0.0150549457907676,0.0028797530103474,-0.019564589485526,0.0045099924318492
4.62064697265625,-0.0689167382292449,-0.0769483612544834,-0.0412900417655706,0.009775630198419,0.0031038424931466,-0.002477184869349
4.64069921875,-0.0418811212602071,-0.057364174536243,-0.0007516951501369,0.028004802763462,0.0112280687317252,-0.0003198841586709
4.660750244140625,0.0121340899080038,-0.0312917217772454,0.2576888131558895,-0.0014622167218476,0.0069555146619677,-0.0023353626020252
4.68080224609375,0.0655878678011707,-0.0082256842926144,0.1398562144577503,-0.0136588606983423,-0.00675391824916,0.0045698219910264
4.700854248046875,0.0646325215714052,0.0082554218437522,0.0608884762048721,-0.01414112187922,0.0015705521218478,0.0180844515562057
4.720906005859375,0.0493630014481954,-0.0231023509070277,-0.0210544784665107,-0.0058724540285766,-0.0048532169312238,0.0206660442054271
4.74095703125,0.0005343626050278,-0.0650190732035785,0.0620545973747968,-0.0074197771027684,-0.0057433326728641,0.0234714969992637
4.761009033203125,-0.0637212884780019,-0.0772887721899896,0.1006102457404136,-0.0134386923164129,0.0079596135765314,0.017787666991353
4.78106103515625,-0.0587065107895992,-0.0281085616964846,0.0904021554589271,-0.0050179469399154,0.0159673895686864,0.0146032162010669
4.80111328125,-0.0248042959867045,-0.0396251772932708,0.0827443341821432,-0.0078334463760256,0.02160469815135,0.0131443534046411
4.8211640625,-0.0343608635568991,-0.0190824477411806,0.1320277127891778,-0.021933302283287,0.0054026129655539,0.0053666392341256
4.841216064453125,-0.0371946622107177,-0.000371536726132,0.0064139586955308,-0.0119904857128858,0.0028410013765096,-0.0038749522063881
4.86126806640625,0.0196237515436485,-0.013531535615772,-0.1161895076662302,0.0102757988497614,0.0176650285720825,0.0010277214460074
4.881320068359375,0.0251321214352734,-0.0172680917955935,0.0366448463082313,0.0177025236189365,-0.0048937001265585,0.0109520871192216
4.901371337890625,-0.0525299227802082,-0.0422995841342955,0.2103343567848205,-0.012473034672439,0.005939535330981,-0.0009087715297937
4.921423095703125,-0.0015275931597687,-0.0159569361317902,0.0179144268751144,-0.0037977877072989,0.0117590744048357,0.0001471717841923
4.94147509765625,-0.0574950891732238,-0.0668953154042363,0.101072018033266,-0.0110476315021514,-0.0020174861419945,-0.0050947898998856
4.961527099609375,0.0194437370679341,-0.0021885230202227,0.0563596006035804,-0.008491544984281,0.0064586102962493,0.0040175290778279
4.981578369140625,-0.0361359104054048,-0.016330810945481,0.0758265176177024,-0.0161485541611909,0.0155297322198748,-0.0123624000698328
5.001630126953125,0.0096257603488862,-0.0451272087756544,0.0013490765213966,-0.009435779415071,-0.0016027744859457,-0.0083842016756534
5.02168212890625,0.0087062160848639,-0.0266818168289959,-0.1136439148366451,0.0175288058817386,0.0058966581709682,0.0021224385127425
5.041734130859375,-0.0404809173397719,-0.0818202050745487,0.066403440234065,0.0091250520199537,-0.0038132944609969,-0.0109754279255867
5.06178515625,-0.0629719679480418,-0.0465856639556586,0.0826531487673521,0.0026539277750998,-0.0048954905942082,-0.0162624288350343
5.081837158203125,0.0124210536232218,0.0065058747626841,0.067058104750514,0.0016079554334282,0.0116831278428435,-0.010286558419466
5.10188916015625,0.0085297452731058,-0.0174020203735679,0.0817436327069997,0.0014530869666486,0.0017008767463266,-0.0101573346182703
5.121941162109375,0.0429841505986638,-0.0027191958308219,0.0790630153208971,-0.0064640752971172,0.0078845378011465,-0.0083049330860376
5.1419931640625,-0.0183135639942251,-0.017536533473432,0.0437707526654005,0.0002795120235532,0.0071680513210594,-0.0169460624456405
5.162044189453125,0.0179498635146766,-0.0225881908398121,0.0952040027827024,-0.0052953846752643,0.0034404373727738,-0.0048772883601486
5.18209619140625,-0.0264720830684527,-0.071287997405231,0.0674205083221197,-0.0065744575113058,-0.0060931141488254,-0.0185388978570699
5.202148193359375,-0.0078233688357286,-0.0499067712023854,0.05484978056252,-0.012953964062035,-0.0048196734860539,-0.0231651868671178
5.2222001953125,0.0803756688220426,0.0187343649558722,-0.0276484699040651,0.0014879477676004,0.0082630850374698,-0.0084379184991121
5.242251220703125,0.0560172899719327,-0.0051484688043594,0.1204629472017288,-0.0151460608467459,0.0013678115792572,-0.0022887892555445
5.262303466796875,0.0273204617924056,-0.030294162107259,0.0495937597304582,-0.0104992762207984,-0.0257413163781166,-0.0051547437906265
5.282355224609375,0.0431537350119091,0.0081554686006158,0.0249754513025283,-0.0082564521580934,-0.0071807936765253,0.0015317490324378
5.302406982421875,0.0415877278042025,0.000388853187114,0.0941460181623697,-0.0066090365871787,-0.0046510035172104,0.0096475146710872
5.322458251953125,-0.0213256235580891,-0.0425583081357181,0.070353639164567,-0.010646304115653,0.0071673481725156,-0.0074671022593975
5.34251025390625,0.0661633844004944,-0.0011221358977258,0.0667874711155891,-0.011185061186552,-0.0078166611492633,1.9310042262e-05
5.362562255859375,0.0670727177977561,0.0417832321099936,0.0709112730473279,-0.0078686000779271,-0.0188106372952461,0.0142764635384082
5.3826142578125,-0.0079254957696422,0.0477241664662957,0.0130821844130754,-0.0067912712693214,0.0053684404119849,0.0105343926697969
5.402665283203125,0.0049104222647845,0.0286333162229508,0.0096808515369892,-0.0005736052989959,-0.0033365793060511,0.007261149585247
5.42271728515625,-0.0083618048276752,0.0199986858032643,0.0636754765748977,-0.0101392110809683,-0.0163903553038835,0.0076819430105388
5.442769287109375,-0.0374744655327871,0.0217678874328732,0.0089005148142576,-0.0104794725775718,-0.0172264762222766,0.002589885611087
5.4628212890625,-0.0344482495794072,-0.0067350804086774,0.0379927537858486,-0.0045727305114269,-0.0078961811959743,-0.0097690420225262
5.4828720703125,-0.0171977665057405,-0.0023988047700375,0.0344143107771873,0.0079283658415079,0.0070374147035181,-0.0098676132038235
5.502924072265625,0.0163448394708335,-0.0143443133033812,0.2102946092963218,-0.0153625644743442,0.0017328062094748,-0.0108772497624158
5.52297607421875,-0.0089889968153089,-0.0015912147141993,0.1133329491913318,-0.0201691444963216,0.0023127840831875,-0.0132225537672638
5.543027099609375,0.0351503699667751,-0.0226730195790529,0.0863747996389865,-0.0266035981476306,-0.0126822693273425,-0.0161509979516267
5.563079345703125,0.073771192523092,0.014417378539592,-0.1112058740347623,-0.0080047892406582,-0.0078093712218105,-0.0001614722423255
5.583130126953125,0.0731115961031988,0.0269251971308141,-0.154256495732069,0.0133573804050683,-0.0021657289471477,0.0053983014076948
5.60318212890625,-0.0064832062731496,-0.0348133200321346,0.0009252981513738,0.0188754703849554,-0.0124692162498831,-0.0006665799301117
5.623234130859375,0.0145460464205592,0.029370909782499,0.1545224531918764,0.0059906607493758,-0.0210002027451992,0.0054015889763832
5.6432861328125,-0.0159818513773381,0.0414299616929143,0.1261544368416071,-0.0014101788401603,-0.0185796152800321,0.0012523056939244
5.663337158203125,-0.0622423750318586,0.0046555707208812,0.1752735647976398,-0.0269666071981191,-0.0110457725822925,-0.0120648453012108
5.68338916015625,-0.0100004206138663,0.0115920919857919,0.0009422492861747,-0.016213908791542,-0.0068163778632879,-0.005379716400057
5.703441162109375,-0.014814561163634,-0.0367195189796388,0.0011216975063085,-0.0137428296729922,-0.0038888603448867,-0.0093752276152372
5.7234931640625,0.0606409311845898,-0.0002927724014967,-0.0368283861815929,0.0001481168437749,0.0008750138804316,-0.000456174602732
5.743544189453125,0.015107077836804,-0.0108512835558503,0.0863029034465551,-0.0046514053829014,0.0077111693099141,5.82679640501e-05
5.76359619140625,0.0041982188748195,0.0134136083245277,0.0980792659580707,-0.0179692674428224,0.0156779158860445,-0.0003449802752584
5.783648193359375,0.0584185789600014,0.0207394942332059,-0.0285386967420578,0.0036644586361944,0.0006117112934589,0.0053967647254467
5.8037001953125,0.0057660344471223,0.0151242846999317,0.0927022490948438,0.0017137415707111,-0.0068642115220427,0.0098931025713682
5.8237509765625,-0.0204516537351533,-0.0328138167779892,0.1560895563781261,-0.0223392359912395,-0.026735445484519,0.0044273720122873
5.843802978515625,-0.0686752393572591,-0.0245929547909647,-0.0819797795504331,-0.0081876255571842,-0.0179666634649038,-0.0044331061653792
5.863855224609375,-0.0344236265948042,-0.0140884388461709,-0.0832733264923095,0.0122380796819925,-0.0051297405734658,-0.0054174088872969
5.8839072265625,-0.0027170404063537,0.0284625627659261,0.0040080665975809,0.017178414389491,0.0005474044010043,-0.0059621813707053
5.903958251953125,0.0336806262077763,0.0030995003852993,0.1671674152314662,-0.0054256608709692,-0.0201019868254661,-0.0016767345368862
5.924010009765625,0.014409085635282,-0.0042443595714867,0.1023591352343559,-0.0133194671943783,-0.0305404178798198,-0.0003044377081096
5.94406201171875,-0.0081352295301854,0.0128012485798448,0.0873965439021587,-0.016592402011156,-0.0129120415076613,-0.0029194902162998
5.964114013671875,-0.0423522459032945,-0.0160194799739867,0.0531494063854217,-0.0122433211654424,-0.0082715582102537,-0.0076037840917706
5.984166259765625,-0.1049533712449483,-0.0662435734972357,0.0858247645407915,-0.0247505754232406,0.0008020433597266,-0.0352258719503879
6.00421728515625,-0.0543316384399309,-0.0437995403684675,0.2029600286245346,-0.060196466743946,-0.010855090804398,-0.0405758470296859
6.024269287109375,-0.0391879731860943,0.0042811113853007,-0.127629770091176,-0.0173558760434389,-0.0212284103035926,-0.0371810421347618
6.044321044921875,0.0236830734044313,0.0147759096536785,-0.0384434201627969,-0.0126045159995555,0.0043189725838601,-0.0291050504893064
6.064373046875,0.0619334552131593,0.0052400195453315,-0.040177696609497,0.0013915253803133,0.0092290677130222,-0.0267761312425136
6.084424072265625,-0.0049020928278565,-0.006102116267383,0.047288989919424,-0.0023148383479565,-0.0026007022242993,-0.0353819206357002
6.10447607421875,0.0125480227374471,-0.0027145927209407,0.1014572179585695,-0.0182088706642389,0.000916251912713,-0.0350167378783226
6.124528076171875,0.1079207879494875,0.0533117573402822,0.0216845930635929,-0.0043082516640424,-0.0247717462480068,-0.0013945465907454
6.144580322265625,0.0450745652729645,0.0888251154005527,0.0491080220401287,-0.0007053359877318,-0.0194354709237813,0.0149429282173514
6.164631103515625,0.0266730672669596,-0.0007649930231273,0.1313514209628105,-0.0254975445568561,-0.0212813168764114,0.0094676855951547
6.18468310546875,0.0658304626516997,0.0767275581106543,0.0347790524363517,-0.0087735205888748,-0.0321011245250701,0.0342053659260273
6.204735107421875,-0.0298414499036967,0.0220658474661409,0.129753922638297,-0.0129070561379194,-0.0415053106844425,0.029526587575674
6.224787109375,-0.1028965483129955,-0.0142529086928814,-0.0258025497764348,-0.0013661353150382,-0.0240662731230258,0.0083481725305318
6.244838134765625,-0.0719709381680935,0.0165247260823845,-0.0999386300891637,0.0215693265199661,0.0242404229938983,0.0069545577280223
6.264889892578125,-0.0102735202005133,-0.0459566453371197,0.1310977384626865,0.0110777458176016,-0.0106061939150094,-0.0030613264534622
6.284942138671875,0.0270456269063986,0.0001063829839229,0.0134989485204219,0.0154361743479967,-0.0187384095042943,-0.0019418733427301
6.304994140625,-0.0118259372742846,0.0438669065162539,-0.0145014035612344,0.0224833991378545,0.0065862303599715,-0.0044459477066993
6.325045166015625,-0.0412101814623922,0.0070238342221826,0.1898790132552385,-5.35806175321e-05,-0.0096249468624591,-0.015206248499453
6.34509716796875,-0.057044970785547,0.0068881520785391,0.2226630924820899,-0.0211132876574993,-0.0269765444099903,-0.0260576754808425
6.365149169921875,-0.0657420902485027,0.0230084620784968,-0.0226385327875614,-0.0030792723409831,0.0087565556168556,-0.0262727010995149
6.385200927734375,0.0218191792286932,0.0163324183806777,0.0220019884496927,-0.0016549284337088,0.0050990129821002,-0.0256674420088529
6.4052529296875,0.0450559153714217,-0.0316614318724721,0.0947013139575719,-0.0198907162994146,-0.0207967218011617,-0.0190737247467041
6.42530419921875,0.0714605226942338,0.0410236459143459,-0.0809305627584457,-0.0027827720623463,-0.0069274865090847,0.0025354167446494
6.445356201171875,-0.0166974523007869,0.0104138419866561,-0.0420014049053192,0.0161959752440452,0.0003181062638759,-0.006592018995434
6.465408203125,-0.0744406527498736,0.0001321750123053,0.0095844054251909,0.0212770253419876,0.0147349312901496,-0.0198117010295391
6.485460205078125,-0.0681336250275373,-0.0259394740290939,0.1691413456529378,0.0012938939034938,-0.0090185878798365,-0.0336051508784294
6.50551123046875,-0.0388022252715192,0.030931875488907,0.1804237871676683,-0.0252043455839157,-0.0138358641415834,-0.0278154574334621
6.525563232421875,0.0283645822841674,0.0506696453336626,-0.0318354001998901,-0.0091257020831108,0.0097202295437455,-0.0118123013526201
6.54561572265625,0.0570524234396405,0.0445721321761608,-0.0713946726500988,0.0158667489886283,0.0096788965165615,-0.0058130463585257
6.565667724609375,-0.0353471529141999,-0.0125720429338514,0.13864450058043,0.0068067493848502,-0.0120296953245997,-0.0131522323936223
6.58571875,-0.0746866451338864,-0.0266006413515657,0.1540033977538347,-0.0205916333943605,-0.0087581053376197,-0.0230428017675876
6.6057705078125,0.0174275932062417,0.0144702047053724,-0.0054360535740852,-0.0061207618564367,0.0048281853087246,-0.0136739611625671
6.625822509765625,0.066258898930531,0.0116875882495194,0.0330745866060256,0.0039391480386257,0.0114581668749451,-0.003036841051653
6.645874755859375,-0.0248887228671461,-0.0259904004987329,0.0607680646955966,-0.0006321894470602,-0.0032065466511994,-0.0098121259361505
6.6659267578125,-0.0206589946092106,0.009771233234182,0.1017249289840459,-0.0084837051108479,-0.0131497792899608,-0.0118875745683908
6.685977783203125,0.0290792333595454,0.0622008739776909,-0.0008732757031917,-0.0078640505671501,-0.0002683605998754,-0.0112081877887249
6.70602978515625,-0.020690668389108,0.024155001765117,0.0028694179564714,-0.0027753098402172,0.0094947014003992,-0.0110144969075918
6.72608154296875,-0.0383799630051478,0.018856603096053,-0.070823594763875,0.0191023033112287,0.0128192659467458,-0.0148952864110469
6.746133544921875,0.0002745243587531,0.0218790196571499,0.043297874456644,0.0179677754640579,0.0076684304513037,-0.0101233702152967
6.7661845703125,-0.0003530146887525,0.013814005818963,0.0922445684552192,0.0057540019042789,0.0010669319890439,-0.0113993398845195
6.78623681640625,0.0341385260431095,0.0213407480619847,0.0744610744833946,-0.0018498450517654,-0.0011532041244208,-0.0034445088822394
6.806288818359375,0.045919327267725,0.0097621731448918,0.0561456655919551,0.0060777515172958,-0.0011955350637435,-0.0019013478886336
6.8263408203125,-0.0175526626243256,-0.0122723293349146,0.0585907206565141,0.004153580404818,-0.0009728572331368,-0.0067913318052887
6.846391845703125,0.006268120484054,-0.0109314361199736,0.0651619157403707,0.0014721602201461,-0.0063754129223525,-0.002732581924647
6.866443603515625,0.0166029424177482,0.002634659352526,-0.0494166495978832,0.0198169723153114,-0.001858483068645,0.0057747620157897
6.88649560546875,0.0141439136267639,0.011470146106556,0.0354693727880716,0.0183535814285278,-0.0001788819208741,0.0004385379143059
6.906547607421875,0.0255142343543469,0.0163501001678407,0.1757838524073362,-0.005046107340604,-0.0089652948081493,0.007845414802432
6.926598876953125,-0.013081015369296,0.0518877158865332,0.05660276170969,0.000594942132011,-0.0021257190965116,0.011717383749783
6.946650634765625,-0.0857268936568871,0.0024649288088083,-0.0077852470487356,0.0125028835609555,0.0108479354530572,-0.0040092077106237
6.96670263671875,-0.0714193321673199,-0.0367249258071184,0.114561614203453,-0.0032504550181329,-0.0014383364468812,-0.0155092664062976
6.986754638671875,-0.0014429836162365,-0.0255287743363529,0.0858078134059906,-0.0095034930855035,0.002548465039581,-0.012331242673099
7.006805908203125,0.0548881946104578,0.0048228170465677,-0.0410047950834035,0.0111090634018182,0.0147086912766098,0.001213189214468
7.02685791015625,0.0322200886685401,-0.006733911364898,0.0897170958042144,0.003394803032279,0.005928449332714,0.0025882711634039
7.046909912109375,0.0680097429195418,0.0072189914681017,0.0518476761370897,0.0036376728676259,0.0029610134661197,0.0117666218429803
7.0669619140625,-0.0052508332002907,0.0171353322613984,0.1342693542361259,-0.0095575926825404,0.007400516886264,0.0060657197609543
7.087013671875,-0.0273672783425077,0.0055088996145874,0.1382499483048915,-0.0202884152531623,-0.0062684915028512,-0.0014078174717724
7.10706494140625,-0.0214006798219867,0.0029886604219675,0.0522036499679088,-0.0247535742819309,-0.003371758852154,-0.0014766678214073
7.127116943359375,-0.0136699942383915,-0.0101986648660153,-0.0594166500866413,-0.0113501716405153,0.0017795776948332,-0.001502436120063
7.1471689453125,0.0063248373736627,-0.0219577839817851,-0.0292968216329813,-0.0020121652632951,3.17576341331e-05,-0.0017539786640554
7.167220703125,0.0049563985646702,-0.0333073724485933,0.0448825132995843,0.0048272055573761,-0.0081478171050548,-0.0079473014920949
7.187271728515625,-0.0416882838355377,-0.008516995389387,0.0941331586807966,-0.0036711916327476,0.0080124558880925,-0.0140891317278146
7.20732373046875,-0.050569637291599,-0.0442143317144364,0.2485042207032441,-0.0359930992126464,-0.0061550573445856,-0.0210288576781749
7.2273759765625,0.0306898651602678,0.0127815209660679,0.0278507144778966,-0.0248724576085805,-0.0079729594290256,-0.0075503964908421
7.247427734375,0.0849580829751677,0.0018551263473927,-0.159314363643527,0.0113535486161708,0.0002850829623639,-0.0014435958582907
7.26747900390625,0.0026678675023838,-0.0517106788191944,-0.0254512521207332,0.015725165605545,-0.0074541019275784,-0.0111322877928614
7.28753076171875,0.0592061674074269,0.0051680502876639,-0.0258668471843004,0.0203578826040029,0.0054921242408454,0.0097076538950204
7.307582763671875,0.0553344770732335,0.0205444831177592,0.0959726490676403,0.0181204639375209,0.0063489465974271,0.016112932935357
7.327634765625,-0.0417208343982696,-0.0136921330049633,0.138821610713005,0.0106709636747837,0.0006739576347172,0.0008952394127845
7.347685791015625,-0.0534066873484291,-0.0127634738527238,0.0636088410794735,0.0021724016405642,0.0037743430584669,-0.0132585698738694
7.367738037109375,-0.0056812787731178,-0.0056295303195714,-0.0254231950700283,0.009411608800292,0.0027391468174755,-0.0075053288601338
7.3877900390625,-0.0032525720551609,0.0231559807904064,-0.0092570731669664,0.0190762896090745,0.0047717681154608,-0.0013175043277442
7.407842041015625,0.0138758007424883,0.0233917623076587,0.0169382753193378,0.0261965859681367,0.0099309384822845,0.0013418984599411
7.427892822265625,0.0352674022088758,0.0338213133201003,0.159705993309617,0.0094447173178195,0.0009753773920238,0.0022268490865826
7.44794482421875,-0.0216470375321805,0.0029896833352744,0.2561065124005079,-0.015595719218254,-0.0093505466356873,-0.0006321289110928
7.467996826171875,-0.0324874161015264,0.000335150238499,-0.0244926362216472,-0.003446442540735,0.0062203984707593,-0.0077368961647152
7.488048828125,0.0354168023506179,-0.0138647861581295,-0.0098263974875211,0.0080380132421851,0.0105957640334963,-0.0003001610748469
7.50810107421875,0.021557806612458,0.0074766194909811,0.0225642985075712,0.0135064851492643,-0.0023219240829348,0.0025302609428763
7.52815185546875,0.0409721897217445,0.0083138009674847,-0.0011123451560735,0.0152834951877594,-0.0032630176283419,0.0024209786206483
7.5482041015625,-0.0001675933855585,-0.004759469486773,0.1271715049296617,0.004683384206146,-0.0162415709346532,-0.0017341151833534
7.568256103515625,0.000667852791585,0.0470780505824834,-0.0153863697022199,0.0143368272110819,0.0123897511512041,0.0100979954004287
7.58830810546875,-0.0321989910815842,-0.0364662018056958,0.1351110657572746,0.0061732255853712,-0.00219756225124,-0.0050899940542876
7.608359130859375,-0.0190246166067197,-0.011827800437808,0.1007651440411806,-0.0013096124166622,0.0019547007977962,-0.0062281209975481
7.628410888671875,-0.0290935358795337,-0.0442195924114435,0.0369207406401634,0.0086664455011487,0.0049861809238791,-0.008185202255845
7.648462890625,0.0132069067712873,-0.0264349293958395,0.0532020133554935,0.0046391864307224,0.0048729102127254,-0.0037925040815025
7.668514892578125,0.0067494011949747,-0.0312900412768125,0.0919388635069131,-0.0019741402938961,-0.0053504453971982,-0.0092614311724901
7.68856591796875,-0.0025120193535462,-0.020057137992233,0.0148661452203989,-0.0003211162984371,0.00765270460397,-0.0151739157736301
7.7086181640625,0.0250351090678945,-0.0139095020826905,-0.0196866972446441,0.0154879409819841,0.0023210560902953,-0.0093160271644592
7.728670166015625,0.021709946700558,-0.028838556471467,0.0265302795290946,0.009503811597824,0.0089549198746681,-0.0069955978542566
7.74872216796875,0.0778508630521595,-0.0137361913423985,0.0727992787510156,0.0090477038174867,-0.0029194697272032,0.0084852632135152
7.76877294921875,0.0083876516549848,-0.0395220091797411,0.1849479865938424,-0.0110963406041264,-0.027187468484044,0.0047212750650942
7.788824951171875,-0.0171110198040492,-0.0124519236855208,0.0630342560619115,-0.0100234542042016,-0.0085605075582861,0.001375671941787
7.808876953125,-0.017149397319369,-0.0455533252332359,0.0023117840737104,-0.0007029443513602,0.0026804124936461,-0.0010504035744816
7.828928955078125,-0.0139008986511267,-0.0543684267863631,0.0934784941643476,-0.0047042537480592,-0.006747331470251,-0.0040529454126954
7.848979736328125,-0.0632897286603227,-0.043231677352637,0.049118543434143,0.0033286181278526,-0.016776280477643,-0.0177223533391952
7.869031982421875,0.0081344988778233,0.0327959157951176,0.0028618191719055,0.006444139406085,0.0052343746647238,-0.008218883536756
7.889083984375,-0.0441678987568244,-0.0358955623108893,0.1256903264611959,-0.0051219807937741,-0.0158526748418808,-0.0212132148444652
7.909135986328125,-0.0399531854049302,-0.0204870538420975,0.0891618000090122,-0.014241874217987,-0.0211755484342575,-0.0308396033942699
7.92918798828125,-0.0060378553921356,-0.0161085464969277,0.0243757318437099,-0.0129506038501858,-0.0269172396510839,-0.0295489225536584
7.949239013671875,0.0341029432730749,-0.0159070325754582,0.0336398192733526,-0.0083898715674877,-0.0483127161860466,-0.0239342134445905
7.969290771484375,0.0652240211911499,0.0255580004308372,0.0001268412500619,0.0016141762025654,-0.0476026497781276,-0.0124089419841766
7.989343017578125,0.0638508696744218,0.0091478406388312,0.000305704948306,0.0001329581718891,-0.0308706499636173,-0.0100822336971759
8.00939501953125,0.0369249784238636,0.0272412773426622,0.0161766432970762,0.0019182986579835,-0.003121075220406,-0.0078019071370363
8.029446044921874,0.0900829699745401,0.0408128527078777,0.1700052690058946,-0.0068122250959277,-0.0112507082521915,0.0100368373095989
8.049498046875,0.0892378609199076,0.0391700539369136,0.2352121929317712,-0.0207253135740757,-0.0333210974931716,0.0325919352471828
8.069550048828125,0.0763869645120575,0.0607995558124035,-0.0639180531591177,0.0044680628925561,-0.0029978633392602,0.0429066494107246
8.089601806640625,-0.0661678413799032,-0.0171907887756824,-0.1465717864483594,0.0161954462528228,0.0355786979198455,0.0206382535398006
8.10965283203125,-0.0254611889928579,-0.0195936121337115,-0.0240998375117778,0.0166654903441667,0.0345599651336669,0.0237792022526264
8.129704833984375,0.0472833090973086,-0.012176102418825,0.0614215601682662,0.0280132070183753,-0.0135685559362173,0.0380577705800533
8.149757080078125,-0.1055821889340877,-0.0415713429249823,0.3615186054646969,-0.0294410735368728,-0.0101437401026487,0.0056619667448103
8.16980908203125,-0.0535973145497031,0.0137676824592053,-0.0176163207113742,-0.010352998971939,0.0034345081076025,-0.0004292603116482
8.18985986328125,-0.0315222791301086,0.0318446064196527,-0.0993728128999471,0.0138316079974174,0.0175643302500247,-0.0012856388930231
8.209911865234375,-0.0316917356791906,-0.0069939505405724,-0.0142944828122854,0.011538116261363,0.0114888763055205,0.0002336301840841
8.2299638671875,0.0647786703101359,0.033920682041347,0.0896457841336727,0.0109267178922891,-0.0138817019760608,0.0143955070525407
8.250015869140626,-0.0312432247267104,-0.0217389535993337,0.0787654936790466,0.0076526328921318,0.0076162032783031,0.0009976611472666
8.27006689453125,0.0547919676943682,0.0161913294095546,0.0725929425239562,0.0003815109375864,0.0271372310817241,0.006041812710464
8.290119140625,0.0114969245156273,-0.0223199683576822,0.1683925731122493,-0.0115573666989803,-0.0033968084026128,0.0035676900297403
8.3101708984375,-0.0272996564663946,-0.0083008684206753,0.0916904417037963,-0.0086616892367601,-0.016740296036005,-0.003602669108659
8.330222900390625,-0.0431708140108734,-0.0149716514214873,0.0515384640574455,-0.0128111550584435,0.001151958014816,-0.0140207055956125
8.35027392578125,-0.030253976227343,-0.058687385964021,0.0587502951323986,-0.0190996974706649,-0.0109768919646739,-0.0134997256100177
8.370325927734376,0.0186586876374669,0.0006081950262188,-0.082229954919219,-0.0034325455781072,-0.0023386308457702,-0.003959079273045
8.3903779296875,0.0001311155663803,-0.0225415021538734,-0.0302992766737937,0.010150859132409,-0.0068653095513582,-0.0090927109122276
8.410429931640625,-0.0090153550992719,-0.0131816261995583,0.1824655221283435,-0.0175092592835426,-0.0163863059133291,-0.0158222690224647
8.43048193359375,0.0454314158866181,-0.0079836922302842,0.1067149923563003,-0.0240668337792158,-0.0236260090023279,-0.0065464335493743
8.450532958984375,0.0518529003014788,0.0639820583060383,0.009304419440031,-0.0206080228090286,0.0212131142616271,0.0090797897428274
8.4705849609375,0.0149586275431327,0.0090156656265258,0.023450433692336,-0.0082834456115961,0.0113045573234558,0.0078928191214799
8.490636962890624,0.024565007338114,-0.0133363783698529,0.2514396896332502,-0.0477905608713626,-0.0006890189833939,0.0034767040051519
8.51068896484375,0.0099216928218491,0.0046477527406066,0.0589595539689064,-0.0414083302021026,-0.007130610756576,0.0072399522177875
8.530739501953125,-0.0484702721258625,-0.0093440207980573,-0.0469061280816793,-0.030697776004672,0.0152545701712369,0.0066622989252209
8.550791748046874,-0.0278921607331372,-0.0294018894426524,-0.0628647447139024,-0.0042555639520287,-0.0038363800849765,0.0057607856579124
8.57084375,-0.0284265416044741,-0.0106978465598076,0.0252525146782398,0.00104825431481,-0.0155461784452199,-0.0070985984057188
8.590895751953125,0.0129365288646891,-0.027333412605524,0.0128682494014501,-4.68052458018e-05,0.004520365037024,-0.0012658389750868
8.61094677734375,0.0179930816018953,-0.0048100306302309,-0.0442968223661184,0.0127860568463802,0.0040342099964618,0.0017112004570662
8.63099853515625,0.0132159668605774,-0.0106092184282839,0.0950309843033552,0.0063084028661251,-0.0136324819177389,0.0033090636134147
8.651050537109375,-0.0469882534071803,-0.0218861800502985,0.1308271048277616,-0.0107163013890385,-0.0116142956539988,-0.0105967111885547
8.671102783203125,-0.0216853967811912,0.0126009037021547,0.1156938331037759,-0.0227097161114215,0.0006467527709901,-0.0112441685050725
8.69115380859375,0.0272765130528248,0.0409793683812022,-0.0068646250724792,-0.011401885189116,0.0105990888550877,-0.0027733298484236
8.711205810546875,0.0509096646346151,-0.0081435589671134,0.0958382090330123,-0.0319898724555969,0.0052731372416019,-0.0088442526757717
8.7312578125,0.078819342758134,-0.0381784856162965,0.0714233142226934,-0.0437641032040119,-0.0128324124962091,-0.0103845968842506
8.751309814453125,0.0010252148618921,-0.0233883282415568,0.086308748665452,-0.056291364133358,-0.0047611170448362,-0.0196241196244955
8.77136083984375,0.0348482634813524,0.0261210046084597,0.023420623075962,-0.042436446994543,0.0199727676808834,-0.0096264239400625
8.79141259765625,-0.1881240593466907,0.0527550733055919,0.0773228936553001,-0.0350801721215248,-0.0040903789922595,-0.0207209829241037
8.811464599609375,0.043451402784232,-0.011083375278674,-0.1121188972264528,-0.0010558607755228,-0.0029162997379899,0.0036902562715113
8.831516845703124,-0.125074514384102,-0.0066821811776608,-0.0028688334345817,0.0054597440175712,0.0086572244763374,-0.0216254107654094
8.851568115234375,0.0060580579299479,-0.0604941065924242,0.106489951428771,0.0053657982498407,0.0234130248427391,-0.0107504054903984
8.87161962890625,-0.0155056487003341,-0.0841815639110282,0.2171189023584127,-0.0051535498350858,-0.0098390113562345,-0.0134943202137947
8.891671630859374,-0.0050449536309577,-0.0357643006140366,0.0441033456206321,-0.0106313526630401,-0.0029340598266571,-0.0240190252661705
8.9117236328125,0.0363705228788778,0.0091010058224201,-0.0876332752674818,0.0017785942181944,0.0263474620878696,-0.0226976573467254
8.931775634765625,0.0298867503501474,-0.0002945624997839,-0.153778941348195,0.0204527657479047,0.0434979982674121,-0.0209078267216682
8.951826904296874,0.0536021551216021,-0.0612360110009089,0.0221697462320327,0.0209423657506704,0.0140595426782965,-0.0067905662581324
8.971878662109376,0.0909683745069429,-0.0126725441662594,0.1209703122019767,0.0272359363734722,-0.0270025469362735,0.0168183892965316
8.9919306640625,-0.1113832581619732,-0.0129358347449451,0.27932196829319,-0.0095510948449373,-0.0056057716719806,-0.007891783490777
9.011982666015625,-0.0943907501710578,0.0335399025628343,0.0592050531625747,-0.004870775155723,0.031135968863964,-0.0186864361166954
9.032033935546876,0.1147009861415252,0.090190704665333,-0.0612029489815235,0.0203107707202434,0.0254075936973094,0.0093198176473379
9.0520859375,0.0941645767323672,0.0032181583289057,0.1609305666685104,-0.0071673896163702,-0.0005559986457228,0.0162450708448886
9.072137939453125,0.023171068761684,0.0614466946095228,-0.0772387225031852,0.0253182239830493,0.015807319432497,0.0216333046555519
9.092189453125,-0.0886416120598092,-0.0040477410208433,0.1661158603519201,0.011490162461996,0.0360153131186962,0.0050348257645964
9.11224072265625,0.0223581997425295,0.0155865684494376,0.2019341927081346,-0.0211091935634613,0.0621362701058387,0.0163663532584905
9.13229296875,-0.038443785488978,-0.0015396306574344,-0.1283703593254089,0.0209627766162157,0.0546818859875202,0.0095437746495008
9.152344970703124,-0.1018956824410706,0.0299267170343548,0.0467541523903608,0.0119583159685134,0.1195154041051864,-0.0072349710389971
9.172396728515626,0.0323687946905381,0.0063954001255333,0.0087017773717641,0.0054866466671228,0.0783258527517318,-0.015306276269257
9.19244775390625,0.1294352486105635,0.0124822457585483,-0.0384907664358615,0.0438283681869506,-0.0230323579162359,0.019258139654994
9.212499755859374,-0.0366700903473421,0.01929572516568,0.1170171906620264,0.0227829404175281,-0.0183218084275722,0.0033113216049969
9.2325517578125,-0.1569478902405127,-0.0308174553290009,0.0698123718947172,0.0158475674688816,-0.0268341787159442,-0.0255454573780298
9.25260400390625,-0.095356343800202,0.0093781422633677,0.0809726483345031,-0.0080424305051565,0.0026357010938227,-0.026807902380824
9.272655029296876,0.0003511149926111,0.0458612221386283,-0.0228466225802898,-0.0051300767809152,0.0151307499036192,-0.0120464712381362
9.29270703125,-0.0594562331783585,-0.0404147933010011,0.171582309064269,-0.0266564283519983,-0.0200810506939888,-0.0296259336173534
9.312759033203124,0.0505183637620881,0.0425939639709889,0.0423410121232271,-0.0184013117104768,-0.0117779141291975,-0.0192102193832397
