timestamp,acc_x,acc_y,acc_z,gyro_x,gyro_y,gyro_z
0.1098564453125,-0.1512076295554637,-0.8496407067127525,-0.8433294777393341,0.0053383060730993,-0.2890554070472717,-0.0994338020682334
0.129907470703125,-0.009015373365581,-0.8272950193919241,-0.4507195684403181,-0.09042689204216,-0.205400213599205,-0.1477632224559784
0.14995849609375,0.357800315593928,-0.7322941379658877,-0.3840133458673954,-0.1542556881904602,-0.1760704666376114,-0.13881815969944
0.17000927734375,0.7874941932708025,-0.4915647890478372,-0.8201981929987668,-0.0466251857578754,-0.2305502444505691,-0.0671785175800323
0.190060546875,0.8333003242213278,-0.4097394694067537,-0.62528060105443,0.0361232310533523,-0.2641116976737976,0.0031154202297329
0.210111572265625,0.5327173220388591,-0.4791125731013715,-0.1604682098537683,0.0274032354354858,-0.2613835334777832,0.0020341109484434
0.230162109375,0.2945733134388923,-0.530031005564332,0.0310544789552688,-0.0634015128016471,-0.3213377594947815,0.0034216344356536
0.25021240234375,0.2254191131919622,-0.3340931306615471,-0.2453606619805097,-0.1097084507346153,-0.4374412894248962,-0.0026698585133999
0.27026318359375,-0.1538612128041684,-0.3865592309579252,-0.754288673761487,-0.1254275441169738,-0.4992370009422302,-0.1069741323590278
0.290314208984375,-0.3116078156743198,-0.2401006956256925,-0.9949678999274968,-0.2014063596725464,-0.4158984124660492,-0.2091621309518814
0.310365234375,-0.0134638041418045,-0.0680113868873566,-1.002502387085557,-0.2406779080629348,-0.315631240606308,-0.2482303529977798
0.33041650390625,0.3123510352570563,0.1817227409370243,-1.2507897501677274,-0.1976443529129028,-0.225480243563652,-0.2397379428148269
0.35046728515625,0.6605076895192266,0.1427051010828465,-1.3765110562890768,-0.1223805397748947,-0.1981692910194397,-0.1779897809028625
0.370518310546875,0.7835340574681758,0.2185708547323942,-1.7158377036899328,0.0709892213344574,-0.1192936450242996,-0.0983079969882965
0.3905693359375,0.5997441548682749,0.3572149169214069,-1.2059048987805845,0.2004419714212417,0.0390456430613994,-0.0466639474034309
0.4106201171875,0.2410917524896562,0.3354539706859737,0.0804074156671762,0.197424441576004,0.1575116068124771,-0.054463405162096
0.430671142578125,-0.0230126267969608,0.3671550039164721,0.8054010213613509,0.2102790474891662,0.0941805839538574,-0.1189529448747634
0.45072216796875,-0.1065723690152168,0.5431219578057527,1.1851713228315115,0.1890180855989456,0.0282338485121727,-0.1520538181066513
0.47077294921875,-0.1539247795596718,0.704974023233354,1.2628279784858225,0.1225390806794166,-0.0041805086657404,-0.1891762614250183
0.49082421875,-0.1450963070683181,0.763923055808246,1.0428162772953509,0.0468711778521537,0.0809446796774864,-0.2186377495527267
0.510875244140625,0.0645266865767538,0.8513549632847308,0.715160778465867,-0.0069560352712869,0.0989576056599617,-0.214959442615509
0.530926025390625,0.501573338169232,0.8989340221919119,0.4053559936255216,-0.0226170718669891,0.1053366512060165,-0.1221375241875648
0.55097705078125,0.8342556521847844,0.8865250608652829,-0.0071387658387422,0.0436020232737064,0.0610847286880016,0.0422909446060657
0.571028076171875,0.7578277346078306,0.5757603449515998,0.1014174704700708,0.065498910844326,0.0623866133391857,0.1351304650306701
0.5910791015625,0.4618385630216449,0.3191432526804507,0.3338905938267708,0.0498105436563491,0.183671236038208,0.1857708096504211
0.611130126953125,0.4485415668141096,0.2002994311131536,0.5281266332477331,0.0159182958304882,0.2503030896186828,0.2561168372631073
0.63118115234375,0.5358648993495851,0.1595294676989317,0.6584621551662683,0.0469640530645847,0.2154356986284256,0.3304625153541565
0.65123193359375,0.4719045414187013,0.1124538282692432,0.7043804412543774,0.0777666866779327,0.1380878984928131,0.3966948390007019
0.671283203125,0.2629259100917727,0.0403989381447434,0.9549024315208196,0.0422434024512767,0.1129206195473671,0.4465174376964569
0.691334228515625,0.1424370977964252,0.0234394739069044,0.988809377297759,-7.94210936874e-05,0.1174816042184829,0.4814728498458862
0.711385009765625,0.1011767205167561,0.0671555737756192,0.9595540567189454,-0.0310802143067121,0.1226582527160644,0.535511314868927
0.73143603515625,0.0467186426855623,-0.0159830204211175,0.6739817958593368,-0.0089057106524705,0.1093648895621299,0.5653777122497559
0.7514873046875,0.0944822643794119,0.0101245036512613,0.6778150904119015,0.0003745898138731,0.1302766352891922,0.6218220591545105
0.7715380859375,0.121625415109843,-0.1142959490045905,1.0165484480947256,-0.0266698282212018,0.1321614384651184,0.6498244404792786
0.791589111328125,-0.149249262029305,-0.2525735159687697,1.2058370942413803,-0.0714840516448021,0.1391047835350036,0.6171808838844299
0.81164013671875,-0.0947081820897758,-0.4017492013052106,1.0313374364256858,-0.0968260020017623,0.1627946346998214,0.5720089673995972
0.83169091796875,-0.0663030485995113,-0.4290998573064803,1.0254372724711895,-0.1561170071363449,0.2293891906738281,0.5348115563392639
0.8517421875,0.0742769500881433,-0.490469541157037,0.9000245939075946,-0.1821032911539077,0.2932617664337158,0.5310695171356201
0.871793212890625,0.1220043314248323,-0.6092569563619792,0.6058119304746389,-0.1618896275758743,0.3046876192092895,0.5016482472419739
0.891843994140625,0.1899210257660597,-0.7206596681430936,0.5836106200605631,-0.1891757994890213,0.2451762557029724,0.4715616405010223
0.91189501953125,0.235145557436347,-0.7104683098006993,0.4513993673980235,-0.2148129194974899,0.246780127286911,0.5016377568244934
0.9319462890625,0.2828304148055613,-0.7166380114115775,0.1222802257567644,-0.1975414007902145,0.2351083606481552,0.5323060750961304
0.9519970703125,0.1807138561554253,-0.7002005252212286,-0.1339654028534889,-0.1663111746311187,0.2043127417564392,0.5774283409118652
0.972048095703125,0.1121287610333412,-0.7067414712972938,-0.4334598060816526,-0.1236934438347816,0.1376379281282425,0.6174813508987427
0.99209912109375,-0.1089141829010099,-0.7706434501044451,-0.9032704439610242,-0.0671023428440094,0.1921669542789459,0.6456030011177063
1.01214990234375,-0.3611615356553346,-0.9367146675970404,-1.23053080599308,-0.0011377605842426,0.3387872576713562,0.6373016834259033
1.032200927734375,-0.7226019613172858,-1.2005632454916837,-0.9068336894005536,0.0012140362523496,0.6169888973236084,0.6045001149177551
1.052251953125,-0.6858135418199003,-1.2944915292501449,-0.3796668410956859,-0.0600981339812278,0.7525299787521362,0.5864330530166626
1.072302734375,-0.4935097856357693,-1.2702546213552357,-0.2320119355857372,-0.1236530244350433,0.4840218424797058,0.60982745885849
1.092353759765625,-0.8456485683366656,-1.4747380601547655,-0.8630471546441316,-0.1503086984157562,0.0508646368980407,0.4398099780082702
1.112405029296875,-1.5203314982026814,-1.4481664257019755,-1.875734251135588,-0.1737874448299408,0.0170910377055406,0.2101928889751434
1.132457275390625,-1.058683050925657,-1.03592257225886,-2.8194179540276525,-0.1466562151908874,0.2061571925878524,0.1437406241893768
1.152508056640625,-0.2725127814686857,-0.6778048612788319,-3.4616701481491323,0.0260323919355869,0.3430676758289337,0.2307504266500473
1.17255908203125,0.0898192775370553,-0.4535858445916325,-3.2728958812654017,0.3196118175983429,0.2752948403358459,0.3529242575168609
1.192610107421875,-0.0630377631932497,-0.2381684123888611,-1.7914105388075112,0.4664028584957123,0.0928292721509933,0.3529250621795654
1.2126611328125,-0.5508327879114077,0.344346740585193,-0.1307856037735938,0.3600504994392395,0.1577401608228683,0.2155827283859253
1.232712158203125,-0.6173633251238614,1.034238272433728,0.6494295384049416,0.1668925136327743,0.3808376789093017,0.0951089933514595
1.25276318359375,-0.0388243092391639,1.5052068481765686,0.9878706351429224,0.1044121384620666,0.5089124441146851,0.1191402971744537
1.27281396484375,0.609934088438563,1.910170773744583,1.063404307293892,0.1414229869842529,0.4374514818191528,0.2541856169700622
1.292864990234375,0.963607423762977,2.1028940705150365,1.525453663522005,0.1559766083955764,0.2541691064834595,0.4246513843536377
1.312916259765625,0.8093945479769259,1.9213976856797927,1.7296107929766178,0.1341813206672668,-0.0336331240832805,0.4918727278709411
1.33296728515625,0.3208336899854243,1.7861837440699335,1.8460645045369863,0.0025707178283482,-0.1561679542064666,0.4451532959938049
1.35301806640625,-0.1123401387616992,1.762381720460951,1.3328595460891723,-0.0997996926307678,-0.1690288335084915,0.3901974856853485
1.37306884765625,-0.0920550737651065,1.6491541313402354,0.5024374807178974,-0.1162999272346496,-0.2980808317661285,0.3428425788879394
1.3931201171875,-0.2313225650820881,1.3891811527699232,-0.3326929084748029,-0.0826829895377159,-0.320326030254364,0.2681556642055511
1.413171875,-0.1658775580840185,1.2090952192544937,-0.971455506914854,-0.0586653873324394,-0.0801135450601577,0.2007149755954742
1.433222900390625,0.1948290003454312,1.1315880550734698,-0.7999462630867957,-0.064546562731266,0.2573849260807037,0.2449108213186264
1.45327392578125,0.5003886949619278,1.0081428041253238,-0.0352080915033817,-0.0636041834950447,0.413977175951004,0.3810064494609833
1.47332470703125,0.4632002067636698,0.860796306977421,0.9753390703499316,-0.0460155792534351,0.3224374055862427,0.5046010613441467
1.4933759765625,0.5024190682783722,0.5195289007723332,1.1897007829546928,-0.012751679867506,0.0078656692057847,0.5165919661521912
1.513427001953125,0.4152257553307339,0.0938214623831212,1.5996522876769304,-0.0984837263822555,-0.156700313091278,0.49554643034935
1.53347900390625,0.3054331090947613,0.0322257877569645,1.2483762592852117,-0.1794186532497406,-0.1040735319256782,0.4868316650390625
1.55352978515625,0.3646927785214036,-0.1067936105504632,0.6826677911400795,-0.1607522666454315,-0.100801482796669,0.497790515422821
1.573580810546875,0.4669092173494398,-0.2469740885265171,0.2616132931232452,-0.0661847367882728,-0.160686120390892,0.5249619483947754
1.5936318359375,0.3181603425903245,-0.3975914971038699,0.2680377732127905,-0.0206542089581489,-0.1799157112836837,0.5078483819961548
1.613682861328125,0.0017972586803138,-0.5876430904470383,0.3931751419663429,-0.0333400517702102,-0.161352202296257,0.4396665692329407
1.63373388671875,-0.0400110622051637,-0.6952949983272702,0.2600818457722664,-0.0171102173626422,-0.124150775372982,0.377142995595932
1.653784912109375,0.0858299156399443,-0.7123793310537934,-0.0194160636097192,0.0546547248959541,-0.1288848966360092,0.3657525181770324
1.673835693359375,0.0549747677822131,-0.8192342433374374,0.0742313573807477,0.075876846909523,-0.1490891724824905,0.3088690638542175
1.693886962890625,-0.1603076855298131,-1.031746455617994,0.1862298430979251,0.0439046844840049,-0.1473057121038437,0.1911957412958145
1.71393798828125,-0.2337957502625882,-1.0735358252078293,0.1293722298443317,0.0187987815588712,-0.0973119735717773,0.0691667944192886
1.73398876953125,0.0075292264610528,-0.8198802130907773,0.1781102495282888,-0.0076691610738635,-0.076127178966999,0.025473253801465
1.754039794921875,0.1842409343030303,-0.6316229558184743,0.113310152837634,-0.0105861537158489,-0.1611870378255844,0.0016097957268357
1.7740908203125,0.1909690552479587,-0.451946406821534,0.1519967341065406,-0.0985873267054557,-0.2470126301050186,-0.0045885550789535
1.794141845703125,0.4032040397560223,-0.2849935111235827,-0.3518453527122736,-0.1126678884029388,-0.2980250120162964,0.033165369182825
1.81419287109375,0.3975792586768046,-0.2080187733188271,-0.9612707975089548,-0.0810537412762641,-0.2776075303554535,0.1052307114005088
1.834243896484375,0.5981637903416529,-0.2675092923592776,-1.1132096639484166,-0.0265449807047843,-0.2595968544483185,0.233206570148468
1.854294677734375,0.3776692740703001,-0.5278789420969784,-1.1152408775150775,0.0856210142374038,-0.2830418646335602,0.317075103521347
1.874345947265625,-0.1590061379445716,-0.8115449309438466,-0.4070686427623033,0.0419098921120166,-0.2542088329792022,0.3283412158489227
1.89439794921875,-0.6199032919302583,-1.1228945340733971,0.0441050991863012,-0.0352983325719833,-0.3515024781227112,0.2683744728565216
1.914448974609375,-0.6796148333102464,-1.2366555724836883,-0.9419202003508804,0.0098118800669908,-0.5646098256111145,0.1674540787935257
1.934499755859375,-0.4762295650109648,-1.2156819772336631,-1.3187971184670924,0.0274783167988061,-0.5885944366455078,0.1302991509437561
1.95455078125,-0.3622881285324693,-1.1896627890318632,-1.787408317428827,0.0706018880009651,-0.5383237600326538,-0.004775445908308
1.974601806640625,-0.2001821614090353,-0.8581398741845041,-1.916476011368632,0.0851505547761917,-0.3593933880329132,-0.1653995662927627
1.99465283203125,0.676455346366018,-0.1729237868010997,-1.9211510174423452,0.1913856565952301,-0.0729204341769218,-0.1386661380529403
2.014703857421875,1.4039306858733296,0.4675952999174594,-1.8441361668229104,0.4425320029258728,0.0747361630201339,-0.0267741288989782
2.0347548828125,1.359594992801547,0.8373127747330814,-0.5633849936336278,0.6155094504356384,0.1090242192149162,0.0443223714828491
2.0548056640625,1.0717429504416882,1.017296197722107,0.7210942601680755,0.619017481803894,0.0856628194451332,0.0414247587323188
2.07485693359375,0.7016071040835231,1.122617105371505,1.7875602931201455,0.400078147649765,0.034865565598011,-0.046445220708847
2.094907958984375,0.5084578369859606,1.3039993623077868,1.717541584998369,0.2394749820232391,-0.0223852638155221,-0.1331149786710739
2.114958740234375,0.7556064052965492,1.4642650353267788,0.609737579485774,0.2252013981342315,-0.0069022988900542,-0.166919931769371
2.135009765625,1.192896948647499,1.5650848321646451,0.113944359087944,0.1772377043962478,0.1346002668142318,-0.0973005071282386
2.15506103515625,1.3673811166331171,1.484609173566848,0.0808048905521631,0.1416559666395187,0.2477953732013702,7.05979764461e-05
2.17511181640625,1.265684536960721,1.3446964066162703,-0.0266828397423028,0.1946818828582763,0.2842997610569,0.0914756283164024
2.195162841796875,1.327341659450531,1.11723175907135,0.3857563901424408,0.200916901230812,0.2588441073894501,0.2009035497903823
2.21521484375,1.3665557717248795,0.8741118617549538,0.7585176896333694,0.161831185221672,0.2672602832317352,0.3389195799827575
2.235265869140625,1.3067870933301746,0.7943295922487974,0.904815335315466,0.1347645968198776,0.288961112499237,0.4726934134960174
2.255316650390625,1.114615804419294,0.6014176410384476,1.2299842780262231,0.0500071831047534,0.2581842243671417,0.5854191184043884
2.275367919921875,1.000343601616472,0.374657196240127,1.2330688000380992,-0.0099840639159083,0.21827033162117,0.6840656399726868
2.2954189453125,0.8236796053737402,0.2050824276059865,0.7612719567775725,0.0167100634425878,0.1541279852390289,0.7714818120002747
2.3154697265625,0.8078998524397611,0.0894128521606326,0.6952420260310173,-0.0110881943255662,0.110149897634983,0.8710511326789856
2.335520751953125,0.8614642693668604,-0.0017298925325274,0.7270534608334303,-0.0344747453927993,0.0974423587322235,0.9806032180786132
2.355572021484375,0.7045821013063192,-0.0907293415866792,0.2960767037391662,0.0114860823377966,0.082975722849369,1.0325727462768557
2.375622802734375,0.6091899555403739,-0.1456330442935228,0.3515250347167253,0.0055359243415296,0.0841046869754791,1.055798053741455
2.395673828125,0.594862739502266,-0.1349494454547762,0.4359942929953336,0.0071045905351638,0.1034969463944435,1.0533177852630615
2.415723876953125,0.4783543020799756,-0.1141189850024878,0.5382102203667164,-0.0077691962942481,0.1487058699131012,1.020563721656799
2.435774658203125,0.511301974370703,-0.1866227879382669,0.7856693159312009,-0.066493235528469,0.1933302581310272,0.9757433533668518
2.45582568359375,0.6521167316623032,-0.2319073061674833,0.7923691058307886,-0.0992903411388397,0.2284716367721557,0.964367151260376
2.475876708984375,0.8965785451069473,-0.2040767576947808,0.5746890624582767,-0.0642530620098114,0.2221355885267257,0.9821749329566956
2.495927490234375,0.9327429144218564,-0.2183309084966778,0.448507737609744,-0.0168469101190567,0.2602974772453308,0.9962663054466248
2.515978759765625,0.7644698760360479,-0.3366977602019906,0.628217823550105,-0.0519556328654289,0.3320865035057068,0.978117048740387
2.53602978515625,0.6823502496235072,-0.4263699939511716,0.5467009853363036,-0.0988324955105781,0.3454491198062897,0.9920037388801576
2.55608056640625,0.6125263334214687,-0.4210015987858176,0.0570814851373434,-0.0743483901023864,0.2354258000850677,1.0327178239822388
2.576132568359375,0.3184861039459705,-0.4868287004366516,-0.4877426004111767,-0.026168618351221,0.1444161683320999,1.0407224893569946
2.59618359375,0.1474567525893449,-0.5593320649810135,-1.0237532649070025,0.0373179018497467,0.1804395765066146,1.0624815225601196
2.61623486328125,-0.0701987408638,-0.8142734791249037,-1.1268261013686656,0.0677761957049369,0.2977369725704193,1.0757932662963867
2.63628564453125,-0.1503972630206495,-1.0787043138869106,-0.9918564899086952,0.1178116351366043,0.3919880390167236,1.0788321495056152
2.656336669921875,-0.0658684565745294,-1.2403265160813928,-0.5912129117578268,0.0922074913978576,0.4296102225780487,1.108378291130066
2.6763876953125,-0.1081893026925623,-1.3759243424423038,-0.4242009793490171,0.0441485196352005,0.2652733027935028,1.082237958908081
2.6964384765625,-0.4153826263928785,-1.2427946597605943,-1.264427814897895,0.0393988825380802,0.1622465401887893,0.9243021607398988
2.71648974609375,-0.4016160399122163,-0.6869120045810937,-1.6981915723621843,-0.0838162526488304,0.3017203509807586,0.7839477062225342
2.736540771484375,0.3364032342348247,0.1015387587621808,-2.0099521674454213,-0.1320635825395584,0.3583613932132721,0.8480690717697144
2.756591552734375,0.739903224730119,0.5227836647845805,-2.7803198693484066,0.0165877342224121,0.2584092617034912,0.954864501953125
2.776642578125,0.6150663002278656,0.6635787675276398,-2.851599975708127,0.1161033511161804,0.2788983583450317,0.9845507740974426
2.79669384765625,0.6669585461590438,0.8245777232572435,-2.0949889964789152,0.1360829472541809,0.3962316811084747,1.0215692520141602
2.81674462890625,0.9402712641000748,1.2370831502459942,-1.2400234414815905,0.1976065337657928,0.4625362753868103,1.0909309387207031
2.836795654296875,0.9968712493307887,1.508782806967199,-0.3412789505124092,0.260585755109787,0.4844307899475097,1.1660270690917969
2.8568466796875,0.9436322649657726,1.6771717268176376,0.6480044740378856,0.2694462835788727,0.5272125005722046,1.2276909351348877
2.876897705078125,0.7995596018567681,1.7983534898132083,1.5341098481863735,0.2379495352506637,0.5375106334686279,1.2740122079849243
2.89694873046875,0.6782925717305391,1.8846213219463823,2.0197744732797145,0.2282811552286148,0.3959765434265136,1.2969719171524048
2.916999755859375,0.6028017888732254,1.9659464369803663,2.3590473446667195,0.1686607152223587,0.2099169492721557,1.3227989673614502
2.937050537109375,0.1969248401135206,1.904690442637354,2.442296121239662,0.0152218230068683,0.0560018345713615,1.2405550479888916
2.9571015625,-0.2614390325348824,1.7451576139375566,2.274446568962932,-0.1654632538557052,-0.0811646282672882,1.0920627117156982
2.977153564453125,-0.5217518375188112,1.6885053139977155,1.2541320463329553,-0.2582006752490997,-0.2037058174610138,0.930899441242218
2.997204833984375,-0.3183848355285823,1.5112468589931725,-0.0763116707861423,-0.2570270895957947,-0.2560992836952209,0.8043032288551331
3.017255615234375,-0.1331691561755724,1.307114279457927,-1.1715268283605575,-0.2268380224704742,-0.0375156290829181,0.6889577507972717
3.037306640625,0.1493563573992811,1.2188739782080054,-1.317445703858137,-0.2168354541063308,0.3156302571296692,0.6668593883514404
3.057357666015625,0.6170692375481128,1.1301496928334236,-0.7362263628482818,-0.1429987847805023,0.4193216860294342,0.7390962839126587
3.07740869140625,0.6456341647099704,0.9605965515092014,0.2652513573646545,-0.099227175116539,0.2957089841365814,0.7635074257850647
3.097459716796875,0.5604735631663352,0.7600098278872668,1.1960627192020417,-0.1827370673418045,0.1532317101955413,0.7704541087150574
3.1175107421875,0.54044269212652,0.5904185465097427,1.3141314647436142,-0.2576975226402282,0.1190444827079773,0.7717637419700623
3.1375615234375,0.7280874069910496,0.4321799954041838,0.9007675212293864,-0.2672785818576813,0.0753922238945961,0.809158444404602
3.157612548828125,0.905622852306068,0.1820708967875689,0.8230220182478427,-0.2588468790054321,-0.0183531418442726,0.8868498206138611
3.177663818359375,0.983117960723117,-0.0369480670385062,0.593144756603241,-0.1955333054065704,-0.1561793088912964,0.9354993104934692
3.197714599609375,0.7383983000598847,-0.2590975839752704,0.2872796492993831,-0.1400617063045501,-0.1994653344154358,0.9225378632545472
3.217765625,0.5502569242522121,-0.5026208013955503,0.0156722009062767,-0.1247574985027313,-0.1405471414327621,0.8645894527435303
3.237816650390625,0.4696394460309296,-0.6908086466934531,-0.0820516757428646,-0.1155634149909019,-0.1053406298160553,0.7978962659835815
3.25786767578125,0.5398436667874456,-0.7448434576112777,-0.2859720738321543,-0.0431852266192436,-0.1595332622528076,0.7733896970748901
3.277918701171875,0.6045563409229741,-0.7370465931899846,-0.4063841676294803,0.0482833534479141,-0.2444196939468383,0.7630289793014526
3.2979697265625,0.3321121494447812,-0.8322770455881953,-0.3189151430130004,0.0844436287879943,-0.24201101064682,0.6848975419998169
3.3180205078125,-0.0481020233353599,-0.9216363409306854,-0.2337801143020391,0.1029995456337928,-0.1709318161010742,0.5303049087524414
3.33807177734375,0.0850163707673549,-0.8211694491837174,-0.4224591041177511,0.1202908679842948,-0.045627973973751,0.4293065369129181
3.358122802734375,0.4320368971390649,-0.6342976549204439,-0.1689367629915475,0.1308160573244094,-0.0373627357184886,0.3797036707401275
3.378173583984375,0.3903106559133157,-0.4979053171809762,0.1637555609613657,0.0771809816360473,-0.0351515412330627,0.3029309511184692
3.398224609375,0.3027406916730105,-0.2909073382772505,0.2588911746829748,0.0100234393030405,-0.0262570530176162,0.268370121717453
3.418276611328125,0.5076392140794546,-0.2398390490148216,-0.4765542669206857,0.0569954514503479,-0.1730771213769912,0.2289042323827743
3.43832861328125,0.6308006796501576,-0.0763762604549527,-0.4107856174588203,0.0329216495156288,-0.2615593075752258,0.2628807127475738
3.458379638671875,0.5171793419715017,-0.0334339945029467,-0.6667717183500528,0.0007956619374454,-0.3238536715507507,0.2340674698352813
3.4784306640625,0.1102758266430348,0.0181773155950009,-0.7248936524510383,-0.0927835777401924,-0.3194524347782135,0.1651344895362854
3.498481689453125,-0.0979202029388397,-0.0091550010319799,-1.2786463098645209,-0.1137122586369514,-0.3379455804824829,0.0576394014060497
3.51853271484375,-0.1729468023505061,0.0092616762768477,-1.710710277673602,-0.1288976669311523,-0.2390355467796325,-0.0225020106881856
3.53858349609375,-0.0552595304071903,0.0093830376341938,-1.6702070023715494,-0.1463120132684707,-0.0896252542734146,-0.0718821138143539
3.558634521484375,0.0117854956660419,-0.1058333872161805,-1.5676678343951702,-0.0927174836397171,0.0433957353234291,-0.1223375722765922
3.578685791015625,0.3143836370632052,-0.0686754037540405,-1.0476105258345605,-0.0107103930786252,0.1038290187716484,-0.1137665808200836
3.598736572265625,0.6791647514551877,-0.0003213409088551,-0.5249854126125574,0.0969017148017883,0.0712426379323005,-0.0360019020736217
3.61878759765625,0.5761228215884417,0.0107623631633818,-0.0283767841786146,0.1800479143857956,-0.0291062798351049,0.0042926329188048
3.638838623046875,0.1110103514626622,-0.0307656520765274,0.287755450117588,0.2139183133840561,-0.0303339716047048,-0.0589236505329608
3.6588896484375,-0.1524091142997145,-0.0042301849156618,0.4990022455722093,0.237971693277359,0.006999815814197,-0.1474023312330246
3.678940673828125,-0.2290611960213631,0.1900966745939105,0.615920067512989,0.2471071630716323,0.0623288489878177,-0.2259145081043243
3.69899169921875,-0.3992583343375473,0.3085779464591294,0.8678063318699598,0.2080505192279815,0.0848660096526146,-0.33476322889328
3.71904248046875,-0.4345630180831998,0.4750234040915966,0.8734580740213393,0.1591939032077789,0.1226744577288627,-0.4351625442504883
3.73909375,-0.1750683245491236,0.6925659386895596,0.8292109360158443,0.0937140509486198,0.1229546144604682,-0.462613582611084
3.759144775390625,0.0816994282390922,0.970837228886038,0.434880194273591,0.0791002213954925,0.1498751044273376,-0.4087864756584167
3.779195556640625,0.4564169032990932,1.192819937888533,0.138107324963808,0.0670093297958374,0.175647884607315,-0.2621394395828247
3.79924658203125,0.7459587253767996,1.1589708597786723,0.21106267105937,0.0619296245276927,0.1132731810212135,-0.0692631900310516
3.819297607421875,0.7814645577177405,0.9687000707268716,0.0650146162241697,0.1122514456510543,0.01783412322402,0.0999936982989311
3.8393486328125,0.4949945443008094,0.7322140584670007,0.1426788706630468,0.1127986758947372,0.0946349650621414,0.2231689095497131
3.859399658203125,0.3669655457589775,0.4534017932616174,0.5590110163331031,0.0642622411251068,0.1550231724977493,0.3037652671337127
3.87945068359375,0.1847856721716001,0.2181416695348918,0.7727829463511705,0.0534279383718967,0.1607707142829895,0.3603076934814453
3.89950146484375,0.2000727827504277,0.0857461463466286,0.8675789528548717,0.0771094486117363,0.1283090710639953,0.4166379272937774
3.919552734375,0.2233866575162857,-0.0206992352880537,1.129971413657069,0.047856081277132,0.0974999666213989,0.4612260460853576
3.939603759765625,0.1644738652985543,-0.1396646374084055,1.426573018053174,-0.0418963506817817,0.081998623907566,0.4907912611961365
3.959654541015625,-0.0126185124240815,-0.2757062620140612,1.246338615977764,-0.0861160159111023,0.0277352929115295,0.4656955301761627
3.97970556640625,-0.1618454895563423,-0.3814885035648941,0.709487409004569,-0.1119989454746246,0.0199380218982696,0.4423701167106628
3.999756591796875,0.0757845416394993,-0.3076711338125169,0.3688163612574339,-0.1217699721455574,0.0396847762167453,0.4617283046245575
4.019807861328125,0.1171907936632633,-0.2479746438711881,-0.0115501525402069,-0.0749675706028938,0.0617220848798751,0.4786196649074554
4.039858642578125,0.0638282559838146,-0.3008588234491646,0.0772825616449117,-0.0740177705883979,0.1063964739441871,0.4635865092277527
4.05990966796875,0.05467372987587,-0.3929825420036911,0.1665606815099716,-0.0643780454993248,0.1830996423959732,0.4431412816047668
4.079960693359375,0.089243523475714,-0.4048291202072054,0.2277069318681955,-0.0490191802382469,0.2509008347988128,0.4288325607776642
4.10001171875,0.1765818343846127,-0.5441760699685663,0.6004799217969179,-0.0569889843463897,0.2409034222364425,0.4233802258968353
4.120062744140625,0.1388128063520416,-0.5551943806543946,0.8816811279654503,-0.070381075143814,0.2131579369306564,0.4133325219154358
4.14011376953125,0.1519009090492502,-0.547025833376497,1.0796920097500085,-0.1028591245412826,0.2055609971284866,0.412497878074646
4.16016455078125,0.0254838026834651,-0.658985375322774,0.9582529109925032,-0.1422118544578552,0.1792915761470794,0.3838835656642914
4.1802158203125,0.1497211173247546,-0.7515973157856612,0.6460223603099584,-0.1605425626039505,0.1537941545248031,0.4057807624340057
4.200266845703125,0.1418319715101272,-0.7659250432804227,0.1423380944013595,-0.1532977223396301,0.1570996642112732,0.4305479228496551
4.220318603515625,0.0992934640534222,-0.7749239769678562,-0.2317857256144285,-0.1385419368743896,0.1598412990570068,0.4568477272987366
4.24036962890625,-0.1681014812111854,-0.7926024031300097,-0.5205798711299896,-0.1145360246300697,0.1960728615522384,0.4458135366439819
4.260420654296875,-0.272666419394128,-0.8681998612321913,-0.7223468905776739,-0.0990517809987068,0.2325689494609832,0.4452759921550751
4.280471435546875,0.0325551658418029,-0.8247089484214782,-0.9813269125878812,-0.0002432137262076,0.1987736970186233,0.5215294361114502
4.300522705078125,-0.1249296625533141,-0.8236950221385806,-1.0088765982925891,0.1098457425832748,0.224521592259407,0.5542967915534973
4.32057373046875,-0.4540251127917319,-0.9931017407294362,-0.2938374003797769,0.0939181670546531,0.3337872624397278,0.4959176778793335
4.340624755859375,-0.673162588430941,-1.1292482870142906,0.3947849152505397,-0.0442836247384548,0.4618837833404541,0.4185362160205841
4.360675537109375,-0.6883677563473581,-1.194134235357493,0.550516159710288,-0.1894093006849289,0.3243014812469482,0.3969289064407348
4.380726806640625,-0.9248952696613968,-1.1501710288599132,-0.5780576621085405,-0.1958221197128296,0.0952804759144783,0.2693581283092499
4.40077783203125,-1.2920832990646365,-0.7555178502302616,-1.6294453683942556,-0.2556357681751251,0.1800075769424438,0.1088760793209075
4.420828369140625,-0.9613680473383516,-0.2800305549539625,-2.462751464769244,-0.2484097480773925,0.3605359196662903,0.0367424488067626
4.44087939453125,-0.5073889656454325,0.0900611600015312,-3.204421479976177,-0.0888970494270324,0.38909912109375,0.0602096989750862
4.4609306640625,-0.0972616476985625,0.357229822229594,-2.842341733497381,0.0842694267630577,0.3665127456188202,0.1390104591846466
4.4809814453125,-0.1673979725843295,0.6452635047666728,-1.816801000651717,0.2011036723852157,0.3257791996002197,0.1878588646650314
4.501032470703125,-0.359606269037351,0.8991827362559736,-0.5926929211825132,0.2409965246915817,0.2893288731575012,0.2007861733436584
4.52108349609375,-0.5088297755708918,1.1480815092347565,0.2763929291039705,0.2398132085800171,0.2700863480567932,0.1807682961225509
4.54113427734375,-0.487370844489336,1.304912677760422,0.8393360241889953,0.2364610731601715,0.2406340986490249,0.1774976998567581
4.561185546875,-0.4114612882306799,1.4695320159442722,1.2052888127088546,0.2316271662712097,0.2091931700706482,0.1841534823179245
4.581236572265625,-0.4965504319733008,1.586194840210676,1.4521493578583,0.2019179314374923,0.1543125063180923,0.1875421553850174
4.601287353515625,-0.4653765278894454,1.5119178901225327,1.7696733387738466,0.1159474849700927,0.0338995829224586,0.1674493253231048
4.62133837890625,-0.5223171797839924,1.5020613897576929,1.604345413929224,0.0592991188168525,-0.101148247718811,0.1354069709777832
4.6413896484375,-0.6095290878342464,1.5301564343854783,0.9156570473253728,-0.0028792519588023,-0.162081092596054,0.0722180604934692
4.6614404296875,-0.6205572988595813,1.369832016916573,0.4664332704007625,-0.0921283438801765,-0.1820753663778305,-0.0056371679529547
4.681491455078125,-0.5000305657066405,1.1322837822526692,-0.481533224377036,-0.0633967965841293,-0.2190213799476623,-0.0703459084033966
4.70154248046875,-0.3847000129573047,1.0666058067489417,-1.047905709388852,-0.0126469358801841,-0.1066770479083061,-0.1124945133924484
4.721593505859375,-0.2843355586715042,1.009067079363391,-0.7905541653633117,0.0008196041453629,0.0935351401567459,-0.1153153330087661
4.741644287109375,-0.1085884215453639,0.8916521215554326,-0.2293354098528623,0.0137021373957395,0.2235551923513412,-0.1103629693388938
4.7616953125,0.0168490626659244,0.6451232925783842,0.688140669593215,-0.0090029910206794,0.1837598234415054,-0.1166905611753463
4.78174609375,0.1461687586054205,0.556370438696444,1.4185130457162856,-0.0812009051442146,0.1443227976560592,-0.065683975815773
4.80179736328125,0.2102730915842577,0.3539312921408564,1.2634504942983389,-0.0963886827230453,-0.0089619318023324,-0.0785009041428566
4.821848388671875,0.1930850427549332,0.2537528619464487,1.0158405920863152,-0.0609437301754951,-0.0998320430517196,-0.0383462235331535
4.841899169921875,0.2947921072887257,0.1627668421849608,0.6910030732870102,-0.0379460342228412,-0.1686002910137176,0.0237768664956092
4.8619501953125,0.1125628416016697,-0.0913921894095838,0.696682287967205,-0.0396544933319091,-0.223692238330841,0.0154154188930988
4.882001220703125,-0.2908904236750677,-0.307945639904961,0.5408464140892029,-0.0613589286804199,-0.2059394866228103,-0.0490257330238819
4.90205224609375,-0.3210173394566402,-0.4634936367522925,0.4043056077897548,-0.0848816260695457,-0.1933266073465347,-0.0860779136419296
4.922103271484375,-0.1983461781535297,-0.5603328395213931,-0.061882747939229,-0.0208789333701133,-0.2578575611114502,-0.0890944972634315
4.942154296875,-0.1766594113991595,-0.673244713756442,-0.2965267855942249,0.04401321336627,-0.2789246141910553,-0.0909088402986526
4.962205078125,-0.3276193680701777,-0.7692725270774216,-0.2521609896451234,0.0459602326154708,-0.2028730660676956,-0.137244701385498
4.98225634765625,-0.3093566757466643,-0.9415191452693192,0.0701285982370376,0.0002901924308389,-0.1869569718837738,-0.1772674322128296
5.002307373046875,-0.2141505540721118,-0.9488003152534366,-0.0388940865397453,0.006979945115745,-0.2386399060487747,-0.1966378092765808
5.022358154296875,-0.2157658072490245,-0.9152212862566113,-0.2345855854660272,0.0161637477576732,-0.2742069959640503,-0.1833455860614776
5.0424091796875,-0.2710937997825443,-0.8812425173524767,-0.3594137421399355,0.0275010410696268,-0.3062404990196228,-0.204340860247612
5.062460205078125,-0.3816455207575112,-0.8771572938654572,-0.3377016765475273,0.0222623459994792,-0.3245309889316559,-0.2472689151763916
5.082511474609375,-0.3317160627992823,-0.8291489036303014,-0.3173281660825014,-0.0051584104076027,-0.3156556785106659,-0.2910566031932831
5.102562255859375,-0.3170250184174626,-0.794118725977093,-0.3905477160722017,-0.0095720840618014,-0.2674646079540252,-0.3305672109127044
5.12261328125,-0.1177889604858122,-0.7201704233214259,-0.5389467179477214,0.0218483060598373,-0.2205518186092376,-0.3254343569278717
5.142664306640625,0.0169577106721699,-0.6841328221913426,-0.5389332739442586,0.0886104181408882,-0.2446960806846618,-0.3161307573318481
5.16271533203125,0.0257605920645408,-0.6972709015101194,-0.2716974647641181,0.1237435415387153,-0.2657129168510437,-0.3329293429851532
5.182766357421875,-0.07118716737926,-0.700283162003383,0.0832803407549858,0.0844849348068237,-0.2317795753479004,-0.3916555643081665
5.2028173828125,-0.3078790774747729,-0.6759647133048623,0.2806903340369462,-0.0455723367631435,-0.2241753339767456,-0.4766587316989898
5.2228681640625,-0.1656362601414322,-0.447967785514146,-0.3238946849912404,-0.0349415801465511,-0.3398779928684234,-0.5054754018783569
5.24291943359375,-0.1187673953302204,-0.1890940003573894,-1.1120055488556624,0.0006100549362599,-0.3971654176712036,-0.5317938327789307
5.262970458984375,-0.3083749347003177,-0.2081684839878231,-0.9696458271443844,-0.1283285617828369,-0.3935495913028717,-0.5992218255996704
5.283021240234375,-0.211492404246144,-0.1427112385626882,-1.6877718851566317,-0.133400559425354,-0.4039698243141174,-0.6541354060173035
5.303072265625,0.1144634145259857,0.0578940436292439,-2.8392291544348,0.0421326532959938,-0.317016452550888,-0.6513801217079163
5.323123291015625,0.5494896662067622,0.2138065629400312,-2.6861703440546987,0.1893135458230972,-0.0889183953404426,-0.5789064764976501
5.34317431640625,0.7539124608602374,0.480567301954329,-1.9103186577826736,0.3626245558261871,0.0649576038122177,-0.453727126121521
5.363225341796875,0.5247387443751096,0.585211771646887,-0.5685726254045963,0.4906989932060241,0.0590994879603385,-0.3942625224590301
5.3832763671875,0.1188338846951723,0.7307650287024676,0.9484101468920708,0.4847827553749084,0.0456431470811367,-0.3862358033657074
5.4033271484375,-0.1716891669722273,0.8928057485699653,1.9264818570762872,0.4285769462585449,-0.0046635521575808,-0.4073742628097534
5.423378662109375,-0.3814792608125135,1.1360812748394906,1.946163878145814,0.382868230342865,-0.0698241144418716,-0.4483477473258972
5.443429931640625,-0.4938846102975308,1.1525579239964483,2.2989584944069383,0.2209988385438919,-0.100329041481018,-0.5245564579963684
5.463480712890625,-0.6937661082595586,1.1348844662703572,2.031119458636641,0.0493232980370521,-0.0812193304300308,-0.639252781867981
5.48353173828125,-0.4090537521649152,1.197082709899545,1.3025918335974216,-0.0573932453989982,-0.0545347966253757,-0.6664707660675049
5.503582763671875,-0.0490561091898009,1.2135954532831907,0.5114467166036367,-0.0625932663679122,-0.0060776728205382,-0.6124368906021118
5.523634033203125,0.1990400056365877,1.0835929627113043,0.1911363198399543,-0.0331028848886489,0.0340093411505222,-0.5059748291969299
5.543684814453125,0.1314813309527933,0.8457248484432697,0.2447200259894132,0.0097768800333142,0.1090572029352188,-0.4428546726703644
5.56373583984375,-0.0284484611753374,0.5274069406710564,0.7590384986370802,-0.0258147697895765,0.1442546546459198,-0.4072683155536651
5.583786865234375,0.0068021542955189,0.3551921789221465,1.2887410028994082,-0.0893867760896682,0.1232100278139114,-0.334958553314209
5.603837890625,0.0760292736481875,0.2803673856928944,1.1845973223358393,-0.1016744300723075,0.0291189961135387,-0.2529508471488952
5.6238876953125,-0.123314281512238,0.1852848173327743,0.972317092180252,-0.1079858168959617,0.0031444891355931,-0.2075128406286239
5.6439384765625,-0.3322839988803491,0.0482780009567737,0.8818705130577087,-0.1239248737692833,0.0216261912137269,-0.1995147764682769
5.66398974609375,-0.2072757729317992,-0.0634647564336657,0.6821592570960522,-0.1265952736139297,0.0659346133470535,-0.144092246890068
5.684040771484375,-0.1905040132857859,-0.2176622154548764,0.5196580801099538,-0.1024397313594818,0.0755539909005165,-0.0981490984559059
5.704091552734375,-0.3623556773433461,-0.4653064583279192,0.7467232069432735,-0.1213725432753562,0.0753066316246986,-0.0918149426579475
5.724142578125,-0.3660185106998309,-0.6294236922085285,0.9208341577023268,-0.1236352398991584,0.0391167365014553,-0.0907719954848289
5.744193603515625,-0.2567229272658005,-0.6934725321404636,0.8280734564185142,-0.1184119060635566,0.0196353793144226,-0.0602594166994094
5.76424462890625,-0.1688631314997561,-0.7479828516155481,0.7863005995720624,-0.1417432278394699,0.0130839515477418,-0.0329035371541976
5.784295654296875,-0.3583025294950231,-0.992867420516908,0.8384966507554054,-0.2303880155086517,0.0433723106980323,-0.0669048056006431
5.8043466796875,-0.3602732085134834,-1.206502280151844,0.758242379823327,-0.2985225915908813,0.0712464600801467,-0.1022164225578308
5.8243974609375,-0.2192609741547145,-1.2769269387260078,0.1697790590345859,-0.2700046300888061,0.0963716208934784,-0.0940770730376243
5.84444873046875,0.0985068985193036,-1.2370600616313516,-0.219542914634943,-0.2245064228773117,0.1315607577562332,-0.0322807170450687
5.864499755859375,0.3058637555969878,-1.1976960925575344,-0.3120879273414612,-0.2031773179769516,0.1574857085943222,0.0506587028503418
5.884550537109375,0.426555214324966,-1.178111102121696,-0.583166967946291,-0.173684760928154,0.1169460415840148,0.1549136489629745
5.9046015625,0.4245207858879118,-1.1206132912684232,-1.0542506945014,-0.0953034535050392,0.0817775651812553,0.2714855372905731
5.92465283203125,0.2467357497259974,-1.0569599534600973,-1.2995242627203465,-0.0099528739228844,0.1104655787348747,0.3586681187152862
5.944703857421875,-0.0837118275074288,-1.0539534651204945,-1.101120582225919,0.0313950888812541,0.232379674911499,0.3827180862426758
5.964754638671875,-0.3911122180871665,-1.1438606766693291,-0.6348620838701725,0.0249926671385765,0.3266348540782928,0.3665454089641571
5.9848056640625,-0.4736128797065466,-1.1164243882112204,-0.2814899599820375,-0.0261979307979345,0.3112117946147918,0.389151781797409
6.004856689453125,-0.7401430979005992,-1.1023040929220616,-0.7079086153805255,-0.0044173854403197,0.2237176150083542,0.3329842090606689
6.02490771484375,-0.9774234023433178,-0.8454698507688939,-1.2028905193954706,0.0088075399398803,0.2446542084217071,0.2197532951831817
6.044958740234375,-0.4469986482210457,-0.2791376247022301,-0.9290613032996654,-0.079738512635231,0.2904259860515594,0.2685953676700592
6.065009765625,-0.1929898022195324,-0.1148657847817987,-1.452966519460082,0.0247360654175281,0.0962362065911293,0.3488557338714599
6.085060546875,-0.5301617192719131,-0.2487407328728586,-1.8814941298365595,0.1333053559064865,-0.0471327006816864,0.3210614919662475
6.10511181640625,-0.7108573091182857,-0.204145804343,-1.6792144846916195,0.1322610676288604,-0.0498909652233123,0.2399693876504898
6.125162841796875,-0.8858962614424526,0.1801478197705,-1.8363772232592104,0.1647302210330963,0.117061860859394,0.1218367293477058
6.145213623046875,-0.5492583051363006,0.5646352128904313,-1.367323541226983,0.184336706995964,0.3622080683708191,0.0551873296499252
6.1652646484375,-0.0179122714506462,0.9079343441188334,-0.1076718546897172,0.169004425406456,0.4216003715991974,0.0736075714230537
6.185315673828125,0.4973113698758185,1.1514734897606074,0.8297305759757757,0.2138629108667373,0.2722720503807068,0.1560894399881363
6.20536669921875,0.6998632560908794,1.3422500363774597,1.4158324283301829,0.2461975961923599,0.1184682622551918,0.2357699871063232
6.225417724609375,0.7008166112929582,1.406843066188693,2.082592456242442,0.1695947647094726,0.029459049925208,0.2893119752407074
6.24546875,0.6081068730114028,1.4092287922814488,2.1205793648093936,0.0780665650963783,-0.0389005281031131,0.3188689053058624
6.26551953125,0.6127331445725634,1.415251267441362,1.8158505680590864,0.0076500214636325,-0.1670351028442382,0.3350206017494201
6.28557080078125,0.430229884249717,1.3668128152258694,1.5517378593355415,-0.112767294049263,-0.2436282783746719,0.2662352621555328
6.305621826171875,0.2326753679305314,1.3018429149262607,0.9147674050092696,-0.2292840629816055,-0.2548595368862152,0.1866837441921234
6.325672607421875,0.4921753586942329,1.1907375786565244,-0.1520154388070106,-0.2319008708000183,-0.2810739278793335,0.1526652872562408
6.3457236328125,0.6714625065147877,1.0721658520288764,-1.1456108813375234,-0.1599730849266052,-0.1570168435573578,0.1414096653461456
6.36577490234375,0.9119562200460584,0.9825229905046522,-1.2426900303423405,-0.1123703196644783,0.1149965077638626,0.197377473115921
6.38582568359375,0.944332522189617,0.8253159744039178,-0.4735656064987182,-0.0851800069212913,0.2362808734178543,0.2403448969125747
6.405876708984375,0.7847191755995154,0.5143392231747508,0.6777186443001032,-0.1284593492746353,0.1524800360202789,0.2463371008634567
6.425927001953125,0.7257907474212348,0.3255161487132311,1.4332839138686655,-0.1956471800804138,0.0429193489253521,0.2689894735813141
6.44597802734375,0.8784654538545758,0.1863367375385016,1.271186056986451,-0.1757981181144714,-0.0764984712004661,0.3330483138561249
6.466029052734375,0.830031531683728,0.0542135284855961,1.062872392374277,-0.1629761755466461,-0.12036894261837,0.3963054418563843
6.486080078125,0.4825798838857561,-0.2211786260779946,1.1466700350016354,-0.2228427082300186,-0.1676771342754364,0.3826052844524383
6.506130859375,0.1071957981431856,-0.4884173578675836,0.9146563458502291,-0.2699134945869446,-0.1936735957860946,0.3032537698745727
6.52618212890625,-0.0256407285445369,-0.6208828044869006,0.3471621633321046,-0.246225044131279,-0.2015816122293472,0.2155926823616027
6.546233154296875,0.0758297644541366,-0.733668056667596,-0.0830120452076196,-0.2129174470901489,-0.1823642551898956,0.1666808575391769
6.566283935546875,0.2644830033406615,-0.7550953139692544,-0.2814817766755819,-0.1459077000617981,-0.1698810160160064,0.1556257456541061
6.5863349609375,0.3430033631522208,-0.7834641340371221,-0.3876467339336872,-0.0557311549782753,-0.1968025267124176,0.1653877198696136
6.606385986328125,0.2756114598700777,-0.801093533425778,-0.2762982365578413,-0.0002386781852692,-0.2539122104644775,0.1519391685724258
6.62643701171875,0.3630862931728363,-0.7926656776245683,-0.3676660221785306,0.0946348458528518,-0.327864795923233,0.155034989118576
6.646488037109375,0.3863025893157348,-0.7649223690439015,-0.5755792892962693,0.1881031692028045,-0.3222655355930328,0.1495189070701599
6.6665390625,0.3428303446728736,-0.8100632410187274,-0.2918839282244443,0.1959659159183502,-0.2492192834615707,0.1204350739717483
6.68658984375,0.1880032459786161,-0.8301190638367086,-0.0235018716186285,0.2076380848884582,-0.2152523100376129,0.0683158189058303
6.70664111328125,0.2649685218352824,-0.7040824812211096,0.12286650121212,0.1994111835956573,-0.2741242051124573,0.0569205954670906
6.726692138671875,0.2236973674332723,-0.5816555404700339,0.3040115883916616,0.1401039808988571,-0.3531790375709533,0.0361331924796104
6.746742919921875,0.156193162883073,-0.4534437327072024,0.3467763788849115,0.0087902881205081,-0.3948618173599243,-0.007237009704113
6.7667939453125,0.2174417045719921,-0.4117054357174783,-0.1387666656553745,-0.0255435016006231,-0.4310128390789032,-0.0308733489364385
6.78684521484375,0.2748098976962268,-0.3174814569480716,-0.8688912044972181,-0.009859787300229,-0.4284824430942535,-0.0691313445568084
6.806896240234375,0.0589686871234327,-0.2415633155241608,-0.6958148574829102,-0.1563517898321151,-0.4396648108959198,-0.1338445097208023
6.826947021484375,-0.1647886303361505,-0.2232623735494911,-1.3040128063112495,-0.2050252109766006,-0.4829931557178497,-0.2387888878583908
6.846998046875,-0.2439765141457319,-0.1853731532033532,-2.250420965731144,-0.1814303249120712,-0.3821243941783905,-0.3369402885437011
6.867049072265625,-0.1511370485372841,-0.1474093332510441,-2.361101354587078,-0.1823600381612777,-0.1606789082288742,-0.4021608233451843
6.88710009765625,0.0128218529764562,-0.0223124426383525,-2.244970883631706,-0.1225195452570915,0.0046619442291557,-0.4367092251777649
6.907151123046875,0.0922425956938415,0.0023019933320581,-1.670845884796977,-0.0715167000889778,0.10382941365242,-0.4790571331977844
6.9272021484375,0.362483870300278,0.0173592772103846,-0.8553244514375925,-0.0461267232894897,0.1566025018692016,-0.4685064256191253
6.9472529296875,0.6415581474427133,0.2504171416524797,-0.7328104169249534,0.1192075535655021,0.1571398079395294,-0.3783833682537079
6.96730322265625,0.64548781504184,0.3163814598169177,-0.1806464900076389,0.2566745281219482,0.1138259619474411,-0.2907871305942535
6.98735400390625,0.2694168795462697,0.4012939318183809,0.7323942373394966,0.2943808138370514,0.0890627056360244,-0.281443327665329
7.007405029296875,-0.2067996067874133,0.4547171136438846,1.331197750356793,0.2736596763134002,0.0533038489520549,-0.3515524566173553
7.027456298828125,-0.4872736677251756,0.5493510614536702,1.629224419119954,0.2152066528797149,0.0087806433439254,-0.4496161043643951
7.047507080078125,-0.7053212292358279,0.6811519797496497,1.5263251856595277,0.128146544098854,0.0008293259888887,-0.5605961084365845
7.06755810546875,-0.6609999300155788,0.8791527785316109,1.2937111925274134,0.0485346056520938,0.0044436999596655,-0.6112276315689087
7.087609130859375,-0.404018023020029,0.9984716702647508,0.9406675699412822,-0.0019153621979057,-0.0248314049094915,-0.5998963713645935
7.107659912109375,-0.2839261010877787,0.9357346435837448,0.4375917913198471,-0.0088416198268532,-0.023999847471714,-0.6006525158882141
7.127711181640625,-0.015165274297446,0.8798211793124675,0.2327256368130445,-0.0266309287399053,0.1217543631792068,-0.4961898028850555
7.14776220703125,0.2557704853791743,0.6692267102867364,0.2970382422477007,0.0013205120339989,0.1845554262399673,-0.3815809488296509
7.167813232421875,0.2957320550199598,0.3244394593924283,0.6071703593462705,0.0349358990788459,0.1992494761943817,-0.2811714112758636
7.187864013671875,0.1917363315597176,0.0961319312825799,1.164094048011303,0.0368544124066829,0.1979389190673828,-0.2214329242706298
7.207915283203125,0.2164179144822061,-0.0374289824232459,1.55037943046391,0.0059306276962161,0.1122966557741165,-0.1614359766244888
7.22796630859375,0.2838037533497438,-0.0424020946606993,1.5617396133899688,-0.0274312496185302,-0.0127308368682861,-0.0808170959353447
7.24801708984375,0.2199869320753961,-0.0079682024002075,1.1678911022067069,-0.0203715581446886,-0.1283562630414962,-0.0091745238751173
7.268068115234375,0.0555655276164412,0.0140584820993244,0.7435901696145534,-0.0649703964591026,-0.1354815065860748,0.0411846898496151
7.288119384765625,-0.1088679326064884,0.0070475804239511,0.347797538626194,-0.11773082613945,-0.059144876897335,0.07900220900774
7.308170166015625,-0.1247507805887609,0.0298594239518046,0.0172895729750394,-0.1570356488227844,-0.0376874208450317,0.107683353126049
7.32822119140625,-0.1775445784695446,-0.0249803466733545,-0.2761281406879425,-0.1518745124340057,-0.0420474782586097,0.1358564645051956
7.348272216796875,-0.1587941391617059,-0.0990543215353041,-0.6028296997934579,-0.1038507744669914,0.0204179249703884,0.1539359092712402
7.368322998046875,-0.1512256036035716,-0.1955185535121709,-0.2791390129417181,-0.1078233569860458,0.1749279052019119,0.1651573032140731
7.388373046875,0.0081842563036829,-0.44570605112724,0.2651099030673504,-0.143420785665512,0.229580745100975,0.1803983598947525
7.408423828125,0.2004814731491729,-0.5934397209618241,0.5587544112235308,-0.1281299889087677,0.1795010715723037,0.2224568575620651
7.428473876953125,0.3934374096317216,-0.715848395403847,0.642701691454649,-0.0766949504613876,0.1358856111764907,0.2815419435501098
7.44852490234375,0.2643428642176091,-0.8611653594855219,0.8886252480149268,-0.0910763069987297,0.2139381468296051,0.2895067036151886
7.46857568359375,0.2468375661326572,-0.9515382888499648,1.08653383846879,-0.122621402144432,0.2927418947219848,0.2926582098007202
7.488626708984375,0.4817709055904299,-0.9432204692944884,1.122448032414913,-0.1264595687389373,0.2756534516811371,0.3454295694828033
7.508677978515625,0.7590726931676268,-0.8753479063559323,0.9506810144335032,-0.0943067595362663,0.1686054766178131,0.4563486874103546
7.528728759765625,0.7305144880075007,-0.8161442414328456,0.5493669896751642,-0.0424090176820755,0.072488859295845,0.5621904730796814
7.54877978515625,0.4691489225676283,-0.7815522360011935,0.1120914246976375,-0.0129515519365668,0.0672748982906341,0.6318244934082031
7.568830810546875,-0.0059955506203696,-0.8064263458210974,-0.2557213124752044,-0.005340551957488,0.1387467682361602,0.6175134181976318
7.5888818359375,-0.3235839750742539,-0.9825648568850012,-0.4420265588968992,-0.050685528665781,0.2579223811626434,0.553191602230072
7.608932861328125,-0.308978088225238,-0.9797222538702188,-0.2818324898093938,-0.1739499121904373,0.3214876055717468,0.5185936689376831
7.62898388671875,-0.110959698987659,-0.7958313020486384,-0.7279951255977153,-0.2052894681692123,0.1810105741024017,0.5569024085998535
7.64903466796875,-0.2335639325344003,-0.6353382500145583,-1.6908675130844115,-0.1833456605672836,0.0846071168780326,0.5563017725944519
7.6690859375,-0.3715753776419908,-0.5466287238176911,-2.229021034827828,-0.2169488817453384,0.0920759513974189,0.5101643800735474
7.689136962890625,-0.0571361927329562,-0.3165853118259459,-2.752754986074567,-0.1775749772787094,0.1033690273761749,0.5349635481834412
7.709187744140625,0.256638208124414,0.0843016466267407,-3.242189777356386,0.0133531568571925,0.10398930311203,0.6385013461112976
7.72923876953125,0.2540124627307057,0.0522140252314507,-2.859955131599307,0.1384420096874237,0.189529612660408,0.686161994934082
7.749289794921875,0.1844091487430967,0.2788767818089574,-1.464993641862273,0.1516820639371872,0.2733573019504547,0.6934213042259216
7.7693408203125,0.1382573096274398,0.4953695150930434,-0.274139012697339,0.1074985638260841,0.2943205237388611,0.6584245562553406
7.789390625,0.4988429998898878,0.8586384713564068,0.1773474484622478,0.1198315322399139,0.283177375793457,0.7032187581062317
7.809441650390625,0.7270303722187876,1.0942289960812777,0.4250847764462232,0.1649937033653259,0.2731518149375915,0.7950136065483093
7.82949267578125,0.9140801533974706,1.3174163316331804,0.7314221774369478,0.2026948481798172,0.3128249943256378,0.9042108058929444
7.849543701171875,0.8672625803820788,1.428813636586815,1.2617805152595043,0.2073794156312942,0.2779942154884338,0.9835417866706848
7.8695947265625,0.9080409462984652,1.4668645503006874,1.6529449019253253,0.1945545226335525,0.1269589364528656,1.066488265991211
7.8896455078125,0.8788822910271584,1.5948432799600063,1.568764981982112,0.186920940876007,-0.0209165085107088,1.1438735723495483
7.90969677734375,0.5068063799845054,1.6465829656779765,1.4389590368956326,0.1061525717377662,-0.1412850022315979,1.1344441175460815
7.929747802734375,-0.1507208324192091,1.5562610358484088,1.0044804091602564,0.0041865315288305,-0.1466506570577621,0.9890631437301636
7.949798583984375,-0.3965601812947541,1.4120916343666612,0.2110837138473987,-0.0440456382930278,-0.1410674154758453,0.8262036442756653
7.969849609375,-0.2332474687300622,1.3471344474181532,-0.5460884063959122,-0.0534606352448463,-0.0863268673419952,0.6882475018501282
7.98990087890625,-0.1260260977542028,1.2695344903871415,-1.0289800596445795,-0.0366965197026729,0.0717399045825004,0.5610929727554321
8.00995166015625,0.104633363776654,1.2787626297205683,-0.9957774627447128,-0.0427853465080261,0.2834716439247131,0.4917267560958862
8.030002685546876,0.5746656815826893,1.2195892868705094,-0.3740805653959512,-0.0298534706234931,0.3456398844718933,0.4871955513954162
8.0500537109375,1.0003848834749312,1.132069847241044,0.3704518535047769,-0.0054101860150694,0.2717064619064331,0.5295486450195312
8.0701044921875,1.1065356660772114,1.027422235743329,0.8861749322533607,-0.0029741760808974,0.1902181804180145,0.6020193099975586
8.09015576171875,1.107458406945318,0.825454359961301,1.3642612310469149,-0.0482645109295845,0.0594100728631019,0.6642979383468628
8.110206787109375,0.8510478700969367,0.6214964794058352,1.4018974264800548,-0.0845511481165885,-0.0057048425078392,0.6725545525550842
8.130257568359376,0.754031557195261,0.4138206012405455,1.1807143434226512,-0.1175144165754318,-0.0270664934068918,0.6696935296058655
8.150307861328125,0.7663545938041061,0.2390432224620133,0.8394663725703955,-0.1271461993455886,-0.0276403818279504,0.6570950746536255
8.17035888671875,0.5876929940033704,0.1602075130909681,0.4877490301519632,-0.1339572519063949,0.0230515412986278,0.6081693768501282
8.19040966796875,0.3006981712610461,-0.0785357765763998,0.2825508672118186,-0.1891036331653595,0.037656232714653,0.5070275664329529
8.210460693359375,0.3179612398216501,-0.2342259583733975,-0.1587964772492647,-0.1894898861646652,0.0055293347686529,0.4402449429035187
8.230511962890626,0.6491783401228487,-0.0993863299686461,-0.8905699523419142,-0.0593747608363628,-0.0641895607113838,0.4738961160182953
8.250562744140625,0.7480244988001883,-0.1031917136009782,-0.9061562285304068,0.0252953972667455,-0.1093747839331626,0.4938391745090484
8.27061376953125,0.524182608329691,-0.2829206503722816,-0.423570864751935,-0.0031583148520439,-0.0837209671735763,0.4561087489128113
8.290664794921875,0.2889088762027211,-0.3735453625407069,-0.1872843205869197,-0.0172558259218931,-0.0920941829681396,0.3922092914581299
8.310715576171875,0.4030588225990533,-0.3210468943446874,-0.091924250459671,-0.0225527379661798,-0.1825128942728042,0.3618962168693542
8.330766845703126,0.5941985034398735,-0.3185566849641502,-0.2631593535214662,0.0104433223605155,-0.2448422908782959,0.3791079223155975
8.35081787109375,0.6991719128258526,-0.2644990776926278,-0.6800777746468782,0.0902515649795532,-0.245988979935646,0.4269911348819732
8.37086865234375,0.5273414011541754,-0.3565048689559101,-0.5900643262445926,0.1205544546246528,-0.2419879734516143,0.4444429576396942
8.390919677734376,0.1850164852527901,-0.4709839925076812,-0.2696475464969873,0.119667962193489,-0.260332703590393,0.404580146074295
8.410970947265625,-0.1376326201241463,-0.5812478364519774,-0.1022720414727926,0.0893203243613243,-0.2645004391670227,0.3453382849693298
8.431023193359374,-0.1274566420139744,-0.5257455102648586,0.0798708245724439,0.0384350009262561,-0.3392985761165619,0.3123789727687835
8.45107421875,0.1697703277388587,-0.4929673493221402,-0.3923942207217216,0.1433376222848892,-0.6058921813964844,0.3259832859039306
8.4711240234375,0.1121962002463638,-0.615005802212283,-0.8355518294751644,0.2585962116718292,-0.7037617564201355,0.3532248735427856
8.4911748046875,-0.3449786818131804,-0.634378465071693,-0.6156991182386875,0.197313591837883,-0.61161208152771,0.246366411447525
8.51122607421875,-0.6344030149910599,-0.8702731603749095,-0.483996984142065,0.043824914842844,-0.4949786961078644,0.0540057867765426
8.531277099609374,-0.5432227147664874,-0.7704371138773858,-0.7886375180870294,-0.0657369047403335,-0.3828763365745544,-0.1070758029818534
8.551327880859375,0.1145361875012516,-0.5440639878962189,-1.2821370745897291,-0.0414868183434009,-0.3498908877372741,-0.133786141872406
8.57137890625,0.8342883854106068,-0.2695407251216471,-1.523379779857397,0.0865484550595283,-0.2544402480125427,-0.0716999545693397
8.59143017578125,1.2453384990245102,-0.166309556293115,-1.1649269917041063,0.2147032171487808,-0.0135153420269489,-0.0014635934494435
8.611481201171875,1.687994295735657,-0.1566666256137192,0.1418856744587421,0.214464858174324,0.1179530546069145,0.0891594812273979
8.631531982421874,1.935296008781344,-0.0164947693355381,0.8805372186273336,0.2608337700366974,0.080190822482109,0.2077945321798324
8.6515830078125,1.9848551355898376,0.154826623770222,0.9611731823533772,0.3568096756935119,-0.0044452687725424,0.3282795250415802
8.67163427734375,1.8956524190485475,0.2959614798616617,1.3437298996716738,0.3842383921146393,-0.0554156601428985,0.4542309939861297
8.69168505859375,1.5476225329712032,0.3080762074820697,1.323206751602888,0.3892715573310852,-0.0476282276213169,0.4988019466400146
8.711736083984375,1.0989524444065988,0.2295170500300824,1.368651574960351,0.3089323937892914,0.0260081682354211,0.4317001700401306
8.731787109375,0.8877771067529916,0.2136386590272188,1.2372481315493582,0.1696352362632751,0.0942630097270011,0.3314452469348907
8.751837890625,1.0359227183893325,0.4114215772747993,0.7896990098387002,0.0849447548389434,-0.0116252899169921,0.3073088526725769
8.77188818359375,1.385346543043107,0.6360819810539484,-0.0133545716136693,0.0993979349732399,-0.2445445656776428,0.3672473132610321
8.79193896484375,1.411042855966091,0.6822147866755723,-0.721654816660285,0.0950536280870437,-0.3521609902381897,0.4150592088699341
8.811989990234375,1.0984737209789457,0.5573666101269423,-0.955506242632866,0.0287186317145824,-0.1439707428216934,0.4505635797977447
8.832041259765624,0.9399924471586942,0.7136911443047225,-1.643068235555291,0.1396220177412033,0.2712257206439972,0.5898584127426147
8.852092041015625,1.1190909770719706,0.7146956451721489,-1.5497867252677675,0.2857557535171509,0.4428030848503113,0.7400388121604919
8.87214306640625,1.2091134855635464,0.4729861991755664,-0.2985708586424589,0.2198279649019241,0.4606752395629883,0.8352264761924744
8.892194091796876,0.9297527926951646,0.2746247503876686,0.6236702432483434,0.1200180277228355,0.4243864715099334,0.8697381019592285
8.912245361328125,0.956879430682212,0.3256860984526574,0.5270996282875537,0.1114726960659027,0.397392213344574,0.9574438333511353
8.932296142578124,1.1327772648580372,0.4567836907848716,0.2622118435382843,0.1537642329931259,0.3608560562133789,1.1049317121505735
8.95234716796875,0.8852159510280937,0.1621612775072455,0.4005237511634826,0.0865317583084106,0.3191529214382171,1.196824312210083
8.972398193359375,0.5619664320725948,0.0975444284290075,0.1812567308604717,0.0807951241731643,0.2797890305519104,1.23807692527771
8.992448974609376,0.2626473123461008,0.1507191153861582,-0.1322206050127744,0.1388467103242874,0.2644256055355072,1.246408224105835
9.012500244140623,0.1181882802680134,0.2739307767741382,-0.2785954075843095,0.2153073400259018,0.3280486762523651,1.269611954689026
9.03255126953125,0.2132140769395977,0.3708968207933008,0.0739227298229932,0.1996665149927139,0.4423206448554992,1.3275145292282104
9.05260107421875,0.2901454870592803,0.4919093647018074,0.5102332491606474,0.2082353830337524,0.4445695579051971,1.3991453647613523
9.07265234375,0.1165574641957879,0.4515403833039104,0.9631237318992614,0.2081235200166702,0.2489475756883621,1.3663383722305298
9.092703125,-0.2567082776859402,0.3451024543233215,1.3027841412991286,0.1568166613578796,0.1855815351009369,1.2947522401809692
9.112754150390623,-0.4802588205270469,0.2769233827188611,1.2607973494410514,0.1196920275688171,0.1963679492473602,1.2207467555999756
9.13280517578125,-0.4045869089491665,0.2388986263595521,1.1759762089848518,0.070671409368515,0.2514671385288238,1.2107011079788208
9.152856201171875,-0.2594265236686915,0.2032083042971789,1.3621435082405804,0.0001579849049448,0.2204721421003341,1.137998342514038
9.1729072265625,-0.7674665736339986,-0.1728055672489106,0.8010960176438092,0.0410832017660141,0.218010276556015,0.9150050282478333
9.192958251953126,-0.3449218370594084,-0.1725328877873718,0.4375175570398569,-0.0036020979750901,0.2757664024829864,0.8571292757987976
9.213009033203123,-0.1433535550542175,-0.1002450656898319,0.5116723420530558,-0.0733867809176445,0.3281163275241852,0.8535726070404053
9.23306005859375,-0.0679638214185833,-0.2491600542634725,0.495675731498003,-0.1282380521297454,0.2969391644001007,0.8578691482543945
9.253111328125,0.0713504681821912,-0.2341099307782947,-0.0901163242548704,-0.0299706235527992,0.2431851774454116,0.8692299127578735
