timestamp,acc_x,acc_y,acc_z,gyro_x,gyro_y,gyro_z
0.103294677734375,-0.214171085403487,0.233067874379456,0.3172527627587318,-0.0027904279995709,-0.1992543786764145,-0.7725117206573486
0.123344482421875,0.0063872168190777,0.2325849131681024,0.3502250580340623,0.0045051397755742,-0.2023309767246246,-0.7903499603271484
0.143395263671875,0.1758349980726838,0.2090682823717594,0.5096329451799393,0.0060502495616674,-0.2609423398971557,-0.7771571278572083
0.163446533203125,0.1136380696177482,0.1136298863112926,0.5761755016237498,-0.0225274432450532,-0.3150474727153778,-0.8012577891349792
0.18349755859375,0.1796880933042615,0.0753732208922505,0.5222586179971694,-0.0701115131378173,-0.3396612405776977,-0.8132838606834412
0.20354833984375,0.1264387702083215,0.0442721263162791,0.3880418707311153,-0.1109581366181373,-0.3631292581558227,-0.826346218585968
0.223599365234375,0.1442834197828546,-0.0301914323851466,0.1628431222915649,-0.1295830905437469,-0.3943415284156799,-0.8337270617485046
0.243650634765625,0.1571209452524781,-0.033498218845576,-0.307602890881896,-0.0911590978503227,-0.3763983845710754,-0.8308536410331726
0.263701416015625,0.1988312217241153,-0.0427558765344321,-0.5002461081534624,-0.0478148646652698,-0.3680993616580963,-0.8394801020622253
0.28375244140625,0.2451795332599431,-0.1432312438488006,-0.2373532966136932,-0.077644482254982,-0.3742981553077698,-0.8605669140815735
0.30380224609375,0.248876743810065,-0.1674098456852138,-0.2154103448748588,-0.0633518621325492,-0.3574572503566742,-0.8757370710372925
0.323853515625,0.1874343965820968,-0.1783338291510939,-0.1889396865785121,0.0180966071784496,-0.3554134368896484,-0.9191297888755798
0.343904541015625,0.0690125632865354,-0.1662947240501642,-0.2052384949505329,0.0990214124321937,-0.3307628333568573,-1.0172913074493408
0.36395556640625,0.023361001843214,-0.0636341216512024,0.2061415812700986,0.0773792266845703,-0.2680645585060119,-1.0810840129852295
0.38400634765625,-0.2025531283240765,0.0116327162571251,0.3322586087107658,0.014403018169105,-0.2482904940843582,-1.123955488204956
0.4040576171875,-0.5229685198321938,0.0524975183479487,0.0811643715143203,-0.0626288503408432,-0.4042125642299652,-1.3213379383087158
0.424108642578125,-0.8367132744699716,0.0992600001752376,-0.2075157922327518,-0.237656757235527,-0.5999420881271362,-1.6073509454727173
0.444159423828125,-0.8065845320574939,0.4048142879642546,-1.3303268127411605,-0.3944811522960663,-0.5200551748275757,-1.823811650276184
0.46421044921875,-0.1415769007705151,0.7691366988033056,-2.2596552425444125,-0.4470264613628387,-0.1466507166624069,-1.888406753540039
0.48426171875,0.6009026041883975,1.0486562354952096,-2.26557235763371,-0.3879426419734955,0.2256794422864914,-1.7518850564956665
0.5043115234375,0.994004169461876,1.073484387281537,-1.5454624323278665,-0.2473421394824981,0.2893726527690887,-1.505569577217102
0.52436181640625,0.9669251700088382,1.006974564063549,-0.5483505061089993,-0.0758564919233322,0.1337516158819198,-1.233040690422058
0.54441259765625,0.5934814412117004,0.8478932785235345,0.0163923318743705,0.1193558126688003,-0.0368917398154735,-1.0149381160736084
0.564463623046875,0.0419403223678469,0.613931085652858,0.569826424857974,0.1852824538946151,-0.1494234502315521,-0.918677568435669
0.5845146484375,-0.644154885937646,0.4688629817657172,0.9034317720025776,0.132561907172203,-0.1353824585676193,-0.9279013872146606
0.6045654296875,-1.0422590818040072,0.3971433149449527,1.0149328295916318,0.0339948534965515,-0.0599691718816757,-0.9855470061302184
0.62461669921875,-1.204769465009868,0.562619123827666,0.7940829240113496,0.0112216724082827,-0.0321860648691654,-1.0155346393585205
0.644667724609375,-1.2924638228148222,0.7207331717707216,0.6780839704811573,0.0106821646913886,-0.0859164968132972,-1.0173641443252563
0.664718505859375,-1.4343129646554589,0.750322546609491,0.5403308657824993,-0.0141549743711948,-0.1543167382478714,-1.0029826164245603
0.68476953125,-1.2272998612478374,0.6654476301394403,0.3043821752697229,-0.0640721172094345,-0.2023344337940216,-0.924939215183258
0.70482080078125,-1.13289329245314,0.3628086452752351,-0.0448895275622606,-0.0756929740309715,-0.2386690974235534,-0.8426951766014099
0.72487158203125,-1.0540272610090673,0.0941805049538612,-0.1761228751033544,-0.067899651825428,-0.2005387395620346,-0.7982641458511353
0.744922607421875,-0.7755555528696626,-0.0542892240703105,-0.0669376932412385,-0.0505166836082935,-0.1456048488616943,-0.7467284798622131
0.7649736328125,-0.4756317452482879,-0.1650859327822923,0.2419505612760782,-0.0307904444634914,-0.1619481444358825,-0.7005580067634583
0.785023681640625,-0.4591167368423193,-0.1861838119991123,0.5017272866219282,-0.0178501605987548,-0.1579554677009582,-0.6923742890357971
0.80507470703125,-0.5379682648370042,-0.1464119197115302,0.6443716704934835,-0.0162411443889141,-0.0752468332648277,-0.7524253726005554
0.825125732421875,-0.3544628417342901,-0.1600602135747671,0.8686538886100054,-0.0271432623267173,-0.0378972291946411,-0.7833305597305298
0.845176513671875,-0.35641887117289,-0.119270814807713,1.0913526369273665,-0.0633152052760124,-0.0637055113911628,-0.8064128756523132
0.865227783203125,-0.3428540178094059,-0.0658906684063374,1.0080465772092342,-0.0970689058303833,-0.1532468497753143,-0.8166924118995667
0.88527880859375,-0.2294603148741647,0.0771475370883941,0.8191904772609472,-0.1267528980970382,-0.2478143125772476,-0.7607107758522034
0.90532958984375,-0.4529931393954902,0.0500078934893012,0.3024421471178531,-0.1084187254309654,-0.3090130686759949,-0.7037065625190735
0.925380615234375,-0.4001076811758801,0.0270095874786376,-0.1789092909514903,-0.0325374752283096,-0.333609402179718,-0.6038146615028381
0.945431884765625,-0.3921650516083463,-0.0920757877595722,-0.2433779637306928,0.007825955748558,-0.2909386157989502,-0.4769280850887298
0.965482666015625,-0.4630369059607386,-0.3419789154753089,-0.0233785374999046,0.0316333845257759,-0.2530696094036102,-0.3829431235790252
0.98553369140625,-0.6163550979293883,-0.6220376736104488,0.5121048882514238,-0.0257420893758535,-0.2032435536384582,-0.3699252307415008
1.005584716796875,-0.8685048355281353,-0.8874380840569734,0.7559744348913431,-0.1163771227002143,-0.1160934641957283,-0.429299920797348
1.0256357421875,-0.7248864189926535,-0.955398836735636,0.3583428980380296,-0.1038168668746948,-0.0822567641735076,-0.5105074644088745
1.045686767578125,-0.2423096038468181,-0.930360110938549,0.4818582185477018,-0.1088484451174736,-0.0842790007591247,-0.5713931322097778
1.06573779296875,0.0423608858674764,-0.9422948788821696,0.5212655153065919,-0.1312643587589264,-0.0356102176010608,-0.591970682144165
1.08578857421875,0.4304446960441768,-0.9006322044119238,0.4703530741930007,-0.1211310178041458,0.0038993749767541,-0.5806996822357178
1.105839599609375,0.7736747075591236,-0.8054244022369385,0.2922112604826689,-0.0434109792113304,0.0281201861798763,-0.5134230852127075
1.125890869140625,1.0346931765943763,-0.9004372663617134,0.5160287836968899,-0.0117956064641475,0.0421148985624313,-0.4165492355823517
1.14594140625,1.07655393091999,-0.9797440273106096,0.535420881909132,0.0302613899111747,0.095719389617443,-0.3043122589588165
1.165992431640625,1.0453488645128906,-1.1054828690886498,0.5879179618656635,0.0954583585262298,0.1095319911837577,-0.2041167467832565
1.18604345703125,0.7889888888079672,-1.275692136234045,0.745886756119132,0.1438212245702743,0.1174783855676651,-0.1597995162010193
1.206094482421875,0.5519774279018864,-1.4047551539987324,0.966979238283634,0.1069972887635231,0.1709150224924087,-0.1368673741817474
1.2261455078125,0.3706178577214479,-1.5618207158021629,1.011267877343297,-0.0025441597681492,0.1600449532270431,-0.0946826338768005
1.246196533203125,0.2556796287579462,-1.6324451347321272,0.2379676291197538,0.0128613114356994,0.0643297508358955,-0.0118414089083671
1.266247314453125,-0.0582888516331091,-1.933105659130216,-0.4372305567920208,0.0498756058514118,-0.0458057820796966,0.0624862723052501
1.286298583984375,-0.3279776799885556,-2.179164678638428,-0.7004325804114341,0.0091764042153954,-0.043048333376646,0.1302940249443054
1.306349609375,-0.7620509783260524,-2.225597197858989,-1.1966525017887353,0.0373910963535308,0.0979928895831108,0.1151671707630157
1.3263994140625,-0.9738473704874516,-2.0895975126989184,-0.893567380592227,0.0005856289062649,0.3802054822444916,0.0778573602437973
1.34645068359375,-0.7973995742786675,-1.8794702227935196,-0.2037806973576545,-0.0991972312331199,0.4531621932983398,0.1059059128165245
1.366501708984375,-0.819567128553614,-1.256854310903698,-0.2372252863198518,-0.085828959941864,0.2130681276321411,0.1185862943530082
1.386552490234375,-0.9356608476951718,-0.529230064444989,-0.6122954472750425,0.019841231405735,0.0392812229692935,0.0814983993768692
1.406603515625,-0.7008128849659114,0.1033515072725713,-0.418005631840229,0.0557167492806911,0.1243487447500228,0.0504090413451194
1.426654541015625,-0.4271437548026442,0.5445420537367462,0.1993295631676912,-0.0247778259217739,0.3847398459911346,0.0972021147608757
1.44670556640625,-0.4238382835164666,0.5648147341758012,0.590263063687086,-0.0424842834472656,0.4417724609375,0.169469267129898
1.466756591796875,-0.386938293403387,0.4599981227867305,0.9414642732769252,-0.0180154610425233,0.2678159773349762,0.3110688328742981
1.4868076171875,-0.4108176200322807,0.3691274730332196,0.6197025086611508,0.0516039468348026,0.0214028935879468,0.5021675229072571
1.50685888671875,-0.9953706355094908,0.0798246473431587,0.3076204265385866,0.0588111765682697,-0.1583033502101898,0.6263128519058228
1.526909912109375,-1.7180968807935717,-0.3118585024997591,-0.0905547156721353,-0.0083611523732543,-0.3079937696456909,0.5481169819831848
1.546961181640625,-2.159298387043178,-0.5546551592111587,-0.7598398781478405,-0.033033899962902,-0.3884571492671966,0.3180453181266784
1.56701220703125,-1.9767513241112231,-0.5708994609169662,-1.404122116792202,-0.0407167263329029,-0.3287580013275146,0.0375301986932754
1.58706298828125,-1.296971217236668,-0.274468244651705,-1.573492010504007,-0.0769687443971633,-0.100704476237297,-0.1301598250865936
1.607114013671875,-0.4115820285335183,0.0667576604992151,-1.5908511415839195,-0.032304111868143,0.039471335709095,-0.1892539411783218
1.627165283203125,0.1808806275570765,0.3449114617958664,-1.100103514137864,0.0465201139450073,0.066934198141098,-0.1784912794828415
1.647216064453125,0.5212824299087747,0.4598324108310043,-0.3395090182304382,0.1052180379629135,0.0712801218032836,-0.1761266440153122
1.66726708984375,0.6318905937787145,0.5019149181485176,0.6738175452083349,0.034800499677658,0.1294361501932144,-0.2259774506092071
1.687318115234375,0.921877821536362,0.6462985469028353,1.2699731740653517,-0.1060324534773826,0.168623611330986,-0.2386605441570282
1.707369140625,1.1140620429940522,0.7533958165749907,1.0821651218652724,-0.1430649161338806,0.0398629307746887,-0.1893852800130844
1.727420166015625,1.0815326691806315,0.6836046335987747,0.7104577153414487,-0.1012021601200103,-0.1978951245546341,-0.1587890088558197
1.74747119140625,0.9358793858166784,0.5129340325519443,0.5343997221678495,-0.1160654574632644,-0.3491297364234924,-0.1456008404493332
1.76752197265625,0.5661597555765882,0.25404168882519,0.0544569818526506,-0.1604861915111541,-0.3180119395256042,-0.2086050659418106
1.787572998046875,0.4815177710795775,0.1359147833555936,-0.5577174693912267,-0.1316820234060287,-0.1972633302211761,-0.2563371360301971
1.807624267578125,0.4935791976101696,0.0454997684150934,-0.5160007266461849,-0.1189424246549606,0.0143608041107654,-0.308420717716217
1.827675048828125,0.6109858625138178,-0.1181413723863661,0.1154582707822322,-0.1812791228294372,0.226247027516365,-0.3461882770061493
1.84772607421875,0.9958164795808494,-0.1901962625108659,0.4242448184907436,-0.1522090286016464,0.1833153069019317,-0.3158671855926513
1.867777099609375,1.3084420209303498,-0.0696701869450509,0.5813531965225934,-0.0569074265658855,0.0944152846932411,-0.1768728941679
1.887827880859375,1.5242293824240565,-0.0394892759539186,0.9836644156247376,-0.0172058008611202,0.015627447515726,0.0184355843812227
1.90787890625,1.3151467792659997,-0.229265997878462,1.273448156699538,-0.0525788143277168,-0.0644573047757148,0.1588327586650848
1.927929931640625,0.9320010100133715,-0.4097763673510402,1.283545187821984,-0.0975684896111488,-0.1282020509243011,0.1948356032371521
1.947980712890625,0.8225716441318393,-0.5028634510450065,1.0637591120809315,-0.1231424883008003,-0.2221789360046386,0.2257981896400451
1.968031982421875,0.8694654972538352,-0.5051211668439209,0.6431149484306573,-0.0837307646870613,-0.2916842997074127,0.3000797629356384
1.9880830078125,0.8323100710749626,-0.6579932224802673,0.4154267212629318,-0.0493168011307716,-0.3038729429244995,0.3389773368835449
2.0081337890625,0.8558665224250406,-0.7323818162493407,0.4757061256587505,-0.0543101020157337,-0.2449742406606674,0.3891830742359161
2.028184814453125,0.6883659297164529,-0.8629466168791056,0.3198836957842111,-0.0217657908797264,-0.2106201946735382,0.3989973962306976
2.04823583984375,0.5695996303647757,-0.996022523546964,0.3127706489086151,0.013675007969141,-0.2343906909227371,0.3836165964603424
2.068286865234375,0.6226561708349734,-0.9991781380336732,0.3782838623046874,0.0117620332166552,-0.2848205864429474,0.3828310072422027
2.088337890625,0.3996349125649779,-1.028699416072294,0.3569102348864078,0.0148023813962936,-0.3535050749778747,0.3397159576416015
2.108388916015625,0.1788135754920542,-1.0665617484115064,0.1477840848475694,0.021151814609766,-0.397955060005188,0.2686807215213775
2.128439697265625,0.1152179592203348,-0.8298597553133964,0.0491530302256345,-0.0399910844862461,-0.3695465326309204,0.2515301406383514
2.148490966796875,-0.1625250693183392,-0.7269128102537245,-0.6169768830895423,-0.0265467148274183,-0.3622005879878998,0.1781729012727737
2.1685419921875,-0.2964212793931365,-0.7244321724191307,-0.992899276959896,-0.0151752829551696,-0.430322915315628,0.0142526645213365
2.188593017578125,-0.3282441854376345,-0.6003159634068608,-0.8480793026149273,-0.1836592555046081,-0.4768698513507843,-0.1296353936195373
2.208643798828125,-0.3937431511126458,-0.3552859946854412,-1.222022505366802,-0.3706519901752472,-0.5010848045349121,-0.3266217410564422
2.228695068359375,0.1309692897774279,-0.127823173771426,-1.858803574600816,-0.4931693077087402,-0.4295474290847778,-0.4505133628845215
2.24874609375,0.909105579855293,-0.0902637699015438,-2.238022087407112,-0.5514669418334961,-0.2884727716445923,-0.414471685886383
2.268796875,1.4795817007936536,-0.0802070707894861,-2.608515441966057,-0.4306495785713196,-0.1514214724302292,-0.2417235672473907
2.288847900390625,1.7540530141852797,-0.2758653980985284,-2.43981950199306,-0.2266181260347366,-0.0950476601719856,-0.0207997504621744
2.30889892578125,1.8644104546971616,-0.2989589811772108,-1.7687071240901946,-0.038661565631628,-0.1075622215867042,0.2408939749002456
2.328949951171875,1.4579761643156408,-0.1338739251777529,-1.0733820959508418,0.1699443608522415,-0.1179526299238205,0.4325563609600067
2.3490009765625,0.7601647261880338,-0.0624568215001374,0.0788882432758808,0.2888155281543731,-0.0768041610717773,0.512135922908783
2.369052001953125,0.1745056491650641,0.000227379015088,0.7228618543624877,0.3397849202156067,-0.0347208119928836,0.4295982122421264
2.389102783203125,-0.2307631045684218,0.240534776194021,1.1797954750120638,0.3423947691917419,0.0072483662515878,0.3250302970409393
2.409154052734375,-0.472577472244203,0.4429034878619015,1.4370289456158876,0.2802727222442627,0.0004547950811684,0.174405500292778
2.429205078125,-0.3674306059874594,0.6285587459422648,1.2535498625308277,0.1941813677549362,-0.0258197411894798,0.0287128947675228
2.449255859375,-0.1764727114543318,0.7934355660185217,0.9513970537483692,0.1008700430393219,-0.0262934286147356,-0.0792990922927856
2.469306884765625,0.0177398009605705,0.920056889719516,0.4589063820272683,0.0597525276243686,-0.0230109691619873,-0.1358619928359985
2.489358154296875,0.3916770123630761,1.0152450373459607,0.0360831207722425,0.0733915641903877,0.0124096702784299,-0.1148858144879341
2.5094091796875,0.7416836053408682,0.9556959930513054,-0.1846452042549848,0.1267866492271423,0.0917309671640396,-0.0243059117347002
2.529460205078125,0.7593610085897147,0.7745414804562926,0.0177881701469421,0.1819446235895156,0.197302371263504,0.0538590103387832
2.54951123046875,0.5791542251735925,0.4136189411886036,0.6063537822663784,0.1840036511421203,0.2186468541622162,0.0794369652867317
2.56956201171875,0.4451284704349935,0.1763356410712003,1.0610784946948288,0.1469060331583023,0.2102441191673278,0.0763224065303802
2.58961328125,0.3807394387632608,0.0436084747757762,1.3024702530443668,0.1087283119559288,0.2113332748413086,0.0774068161845207
2.609664306640625,0.5458353084176778,-0.0395679672133177,1.4314409163504838,0.0546614155173301,0.2019803524017334,0.1449125856161117
2.629715087890625,0.5425915041908621,-0.2047471312370151,1.2742793468266724,0.0421435497701168,0.1140135005116462,0.2254689186811447
2.64976611328125,0.4353130327329039,-0.364112421350181,1.164935175010562,0.0167317669838666,0.010884927585721,0.2920875251293182
2.669817138671875,0.4838312721863388,-0.4760444177024066,1.023728130465746,-0.0621853359043598,-0.057166002690792,0.3825409114360809
2.689868408203125,0.3011692045725881,-0.5094847688809037,0.1062216558814048,0.0193414650857448,-0.0947484448552131,0.4669545888900757
2.709919189453125,0.0994072996914386,-0.7403135590966791,-0.0141787474781274,0.0565943606197834,-0.1211252510547638,0.4910244047641754
2.72997021484375,0.0336991482451558,-0.747668817230314,-0.1554343073397874,0.05770019069314,-0.0169418323785066,0.5023137331008911
2.750021240234375,-0.0158684541307389,-0.8263775392208248,-0.1137099658101797,0.0698126778006553,0.0523462183773517,0.4861305952072143
2.770072265625,-0.003793254803121,-0.8387298019241541,0.3195283064752817,0.0353244021534919,0.1254796087741851,0.4452932178974151
2.790123291015625,0.0990181542433798,-0.8650278070673346,0.3241150497436523,0.0517713353037834,0.2006555199623108,0.3770044147968292
2.81017431640625,0.316241539889574,-0.936683322610706,0.7982681007415056,-0.0181567668914794,0.2252163887023925,0.3345881104469299
2.83022509765625,0.601630260875821,-0.8844758732505142,0.7065484329432249,-0.0494893789291381,0.2358986735343933,0.3278883695602417
2.8502763671875,0.6629286330558359,-0.7529691886607557,0.4474252030700444,-0.0063823061063885,0.2835981547832489,0.3209600150585174
2.870327392578125,0.9588367022298276,-0.6265731981482356,0.8667769888222217,-0.0688976496458053,0.3165851831436157,0.3829761445522308
2.890378173828125,1.13379995896928,-0.4856514733508228,0.5971311958909035,-0.0590729750692844,0.1864192932844162,0.5019203424453735
2.91042919921875,0.9359570541627704,-0.5111382351763546,0.1946779379695653,-0.0090335011482238,0.0546283312141895,0.6019057631492615
2.930480224609375,0.4134815785445273,-0.7436627233941108,-0.2179582757920026,0.0026176536921411,0.1046575307846069,0.5892040133476257
2.95053125,0.2285470359541475,-0.84227171231471,-0.6557067189782857,0.0329910889267921,0.256662517786026,0.5587307214736938
2.970582275390625,0.294483443198353,-0.8523444127134978,-0.91851535936594,0.0944261401891708,0.4523688852787018,0.5369163155555725
2.99063330078125,0.2232387004129588,-0.9030771864112466,-0.4586918624937534,0.1060579866170883,0.6243253946304321,0.5107938647270203
3.01068408203125,-0.0022120500262826,-1.0218378597397355,0.3310363734394311,0.0420428588986396,0.8027727603912354,0.4326045513153076
3.0307353515625,0.2904877246256918,-1.128646448663622,0.9335200362741948,-0.119281992316246,0.7872858643531799,0.4836937189102173
3.050786376953125,0.3062150167200714,-1.3626254465386272,0.1923649848520755,-0.2540151178836822,0.3621414601802826,0.6502337455749512
3.070837158203125,-0.910648206187412,-0.9521316516332328,-1.6925924371808767,-0.184496596455574,-0.0837865993380546,0.5864535570144653
3.09088818359375,-1.2557920884996652,-0.7317117349680513,-3.1873481801003214,-0.1249498501420021,-0.3270342648029327,0.4540562331676483
3.110939453125,-1.067881160447001,-0.2940925441846251,-4.381865423426032,0.0267461501061916,-0.266886830329895,0.3818220794200897
3.130990234375,-0.7147117195241153,0.3452571334283799,-4.642340067908168,0.3418847024440765,0.1801164448261261,0.3608405292034149
3.151041259765625,-0.4621463137965649,0.4675649778444319,-2.375824291944504,0.4529313147068023,0.5631803870201111,0.2740028798580169
3.17109228515625,-0.2042582882741466,0.7581528018437326,0.0910030439615249,0.2811310887336731,0.7034929394721985,0.1735478192567825
3.19114208984375,0.4129974848220125,1.5752613582640886,0.7148480592548847,0.2373745739459991,0.6858590245246887,0.2036688029766082
3.211193115234375,1.0595490201052278,2.0315596036195758,1.2466285388350486,0.260704755783081,0.4978471398353576,0.3830050826072693
3.231244140625,1.1287609418887643,2.034115133321285,1.9035867191791531,0.1758873462677002,0.2854516804218292,0.546797513961792
3.251294921875,1.065191336841136,1.8319719740375875,1.8301082259923216,0.068601369857788,0.0381236597895622,0.6570888757705688
3.27134619140625,0.6696938894070684,1.82220373647809,1.0672890397727488,0.033165942877531,-0.0867265462875366,0.7384262681007385
3.291397216796875,0.1205329619643278,1.719212733080983,0.420579281720519,0.0273010544478893,-0.1846193224191665,0.7519237995147705
3.311447998046875,-0.4583235406380146,1.388525757601112,-0.0970160206407308,0.0130510460585355,-0.198532372713089,0.6577959060668945
3.3314990234375,-0.588943615118973,1.0711146624755117,-0.5047726456671953,-0.0065481308847665,0.0263642445206642,0.5154011249542236
3.35155029296875,-0.3770849348437041,0.8986413228556513,-0.5236497800946235,0.0445378646254539,0.3043861389160156,0.4148775339126587
3.37160107421875,-0.0288721299475058,0.7801051059328019,0.5127712432056665,0.0546339899301528,0.4023619890213012,0.3883811235427856
3.391652099609375,0.0171661657910794,0.5707494579870254,1.4013053058058025,0.0230993926525115,0.3112078309059143,0.3612931966781616
3.411703125,0.117436767780967,0.4733317977428436,1.8600702335357664,-0.0251081082969903,0.1709596216678619,0.3729459047317505
3.431754150390625,0.1999809397485107,0.3562249560359865,1.798460457319021,-0.0465730018913745,0.0403814613819122,0.3831450045108795
3.45180517578125,0.1991608555372804,0.2541343355447054,1.6709224571645258,-0.0740321725606918,-0.0142358466982841,0.3906105458736419
3.471856201171875,0.0032176103396341,0.0896989756256341,1.6441414177447558,-0.136032372713089,-0.0395104698836803,0.3612997233867645
3.491906982421875,-0.2081780555337667,-0.1569204542443156,1.3333914610087871,-0.1478269398212433,-0.1338022500276565,0.2699806690216064
3.51195849609375,-0.1451403654057532,-0.3161351569056511,0.8159890508711337,-0.1480913460254669,-0.1670553535223007,0.1818715780973434
3.532009765625,0.0663636562129482,-0.3751841427236795,0.4474357244640588,-0.1350978910923004,-0.1295365095138549,0.141353040933609
3.552060791015625,0.0917235402557998,-0.5302666409511119,0.1370633688688278,-0.0907865017652511,-0.0989300906658172,0.0865615606307983
3.572111572265625,0.1825319018954411,-0.6858189486473798,0.1558557476222515,-0.0589394979178905,-0.1243553310632705,0.0507304370403289
3.59216259765625,0.1552553705763071,-0.7879306849919259,0.0736368986189365,-0.028908047825098,-0.1544637829065323,0.0136746661737561
3.612213623046875,0.0841874821951612,-0.8050273657433689,-0.0729214438259601,-0.0218210853636264,-0.2145681232213974,-0.059812381863594
3.632264404296875,0.0070256608530879,-0.683467855476588,-0.3406774774879217,-0.0333115421235561,-0.3365551829338074,-0.1021270379424095
3.6523154296875,-0.2303627436066046,-0.5428213674239813,-0.9944669646680354,-0.0031955689191818,-0.4116465151309967,-0.1826116889715194
3.672366455078125,-0.3670429218441248,-0.5162588661257177,-1.3300561791062355,-0.0278593692928552,-0.3904653489589691,-0.3075099587440491
3.692417236328125,-0.2412955314334481,-0.3975733769252896,-1.4789526091098784,-0.0967055559158325,-0.2704844176769256,-0.4285929501056671
3.712468505859375,0.2039785580173134,-0.1792272708594799,-1.7891864330172538,-0.0712458789348602,-0.127001866698265,-0.4523351788520813
3.73251953125,0.2675515240658074,-0.0768301417022943,-1.2404372829794883,-0.1044474840164184,-0.0596593990921974,-0.4602071940898895
3.7525703125,0.0546178715027868,0.0439621835842728,-0.7674176199257373,-0.2196794897317886,-0.1623319536447525,-0.4734088480472564
3.772621337890625,-0.0968415408566594,0.0951972077157348,-1.1452595836818218,-0.2766453623771667,-0.3670832514762878,-0.5151991248130798
3.792672607421875,0.0077360010795295,0.1727503299303352,-1.588043098425865,-0.3091579079627991,-0.4425950348377228,-0.5222235918045044
3.812723388671875,0.0062282268650829,0.1187101121850311,-1.7989765901476145,-0.3024007380008697,-0.3292908370494842,-0.5302907824516296
3.8327744140625,0.3422413658037782,-0.0176833945982158,-1.8065782973229885,-0.222324326634407,-0.2071115970611572,-0.5202639698982239
3.852825439453125,0.6218403244074434,-0.1510194135069847,-1.709720682114363,-0.1235265433788299,-0.0525922067463398,-0.4504697918891907
3.87287548828125,0.6722594290461391,-0.0123415951788425,-1.6194412762522696,0.1189776808023452,0.07087192684412,-0.3372099995613098
3.892926513671875,0.5151498089052736,0.1617727165810763,-0.4341097944229841,0.2971887588500976,0.0933857709169387,-0.2359801083803177
3.912977294921875,0.0153552439115941,0.2886095096636563,1.0036270072013138,0.2927984595298767,0.0580012165009975,-0.2125056087970733
3.9330283203125,-0.607401683884114,0.4386947110604494,1.4978326661467551,0.266926646232605,-0.0523601807653903,-0.2736006677150726
3.95307958984375,-0.9755132578730584,0.611338731072098,1.36164081941545,0.2492324113845825,-0.1383132338523864,-0.3786983788013458
3.973130615234375,-0.9914057504665106,0.8406742139901965,1.2262485986292362,0.1748602986335754,-0.1638414710760116,-0.4703549444675445
3.993181396484375,-0.9859903743542732,1.0580560050684955,0.9230869050651788,0.0836058631539344,-0.0401747822761535,-0.5683750510215759
4.013232421875,-0.6644343614436685,1.142641656268388,0.7516402050793171,-0.0023119477555155,0.1084788963198661,-0.6319623589515686
4.03328369140625,0.0443844275843352,1.157110984190926,0.5705038857281207,-0.024994857609272,0.1006601080298423,-0.5743011832237244
4.05333447265625,0.552402557978779,1.1238433592308312,0.3651853112787008,0.0369068086147308,0.0333690382540226,-0.4135080575942993
4.073385498046875,0.6106831897728144,0.8882135984741151,0.3057973027646541,0.1261564046144485,0.0567179024219512,-0.2623013257980346
4.0934365234375,0.3935771468959748,0.5444830900911242,0.8603829038709402,0.1326117068529129,0.158804714679718,-0.179484874010086
4.1134873046875,0.1950214176449924,0.2531567957494408,1.5896511181443929,0.0549960397183895,0.1954452693462371,-0.1501027196645736
4.13353857421875,0.2092882087327539,0.1008066450953483,1.857016106662154,-0.0160754639655351,0.1255435198545456,-0.1137306168675422
4.153589599609375,0.2728298297949135,-0.0211284204855561,1.7645850757241248,-0.0632651820778846,-0.0080555016174912,-0.0520479679107666
4.173640380859375,0.1182470247179269,-0.1516654563255608,1.4858715947180985,-0.1077326610684394,-0.0694420263171196,-0.014606462791562
4.19369140625,0.0637321751981973,-0.2879493652544915,1.0410060130029917,-0.151304006576538,-0.018081247806549,0.0084742614999413
4.21374267578125,0.0932044264633208,-0.4375925219722092,0.7061275771826505,-0.1794332414865493,0.0535607002675533,0.0390865579247474
4.23379345703125,0.0837102566048502,-0.6190469673618674,0.4793260697215795,-0.1847422569990158,0.0764873772859573,0.075593002140522
4.253844482421875,0.076221800545603,-0.7924637983769178,0.246514508190751,-0.1239666268229484,0.0758770257234573,0.1043406054377555
4.2738955078125,0.0724140788257122,-0.8770699809081852,0.3319464740216732,-0.0881688147783279,0.1379279345273971,0.1346333622932434
4.293946533203125,0.0482953174177557,-0.9839495161764324,0.3783136729210615,-0.0475363284349441,0.1668784171342849,0.1529091745615005
4.31399755859375,0.0386947645753622,-1.0564166403636337,0.3689911333024501,0.0062177740037441,0.1748982667922973,0.1753587871789932
4.334048583984375,-0.0542665738470852,-1.179048382971808,0.574237227037549,0.0550230890512466,0.153370514512062,0.1628382056951522
4.354099365234375,-0.1654196582486853,-1.189282557542622,0.8618412859857082,0.042799275368452,0.1711059212684631,0.1499932259321212
4.374149658203125,-0.3191707982745021,-1.2333221902772784,0.7576140187919139,0.0285142734646797,0.2046197354793548,0.1129337921738624
4.39420068359375,-0.4353523052973672,-1.2420530476130545,0.5472270550370216,0.0106058064848184,0.1883227229118347,0.068008929491043
4.41425146484375,-0.4258671224629506,-1.2052843557294457,0.2406441548526287,-0.021481255069375,0.118766650557518,0.0407921560108661
4.434302490234375,-0.3367823697455227,-1.0134656065832823,-0.4024181866079568,0.0049210973083972,0.0497892685234546,0.065847173333168
4.454353759765625,-0.6040617988716811,-1.1129867419127375,-0.7242781509011983,0.0087238913401961,0.0496034808456897,0.0180188901722431
4.474404541015625,-0.6342887409616261,-1.2212464064277708,-0.9286451237142086,-0.0259469356387853,0.1308309137821197,-0.0560895539820194
4.49445556640625,-0.5628799301883205,-1.3701264698185025,-1.2393851435780523,-0.0357259660959243,0.268078088760376,-0.0941426903009414
4.514505615234375,-0.1502867518508806,-1.7657172946244477,-1.6491431715548035,0.0583536811172962,0.349463403224945,0.021212363615632
4.534556640625,-0.1185688770834356,-2.72881267721206,-1.7926801203519105,0.1316155195236206,0.172873169183731,0.2702765464782715
4.554607666015625,-1.2495362429752943,-3.740987440267205,-2.5368179869771,0.1874791532754898,-0.2012817859649658,0.2453682869672775
4.574658447265625,-3.173801885306835,-2.223975149615109,-3.370641969746351,0.3202782869338989,0.0571611784398555,-0.3935849070549011
4.594709716796875,-0.993111385340616,-0.4551628846500068,-1.9322510881274937,0.0125926733016967,0.5102526545524597,-0.4905143976211548
4.6147607421875,0.15365659361016,0.91959248707816,-2.978217353886366,0.1582386493682861,0.4908868372440338,-0.31906658411026
4.634811767578125,0.4359690854888409,1.5193506704717874,-2.876625111371278,0.5536665320396423,0.2486836463212967,-0.0915254801511764
4.654862548828125,0.3860349878881126,1.7621783068433403,-0.8249778284907341,0.5666481256484985,0.2024110257625579,0.0491195991635322
4.67491357421875,-0.0563897034808993,2.0294654078193006,0.336040465337038,0.4432182312011719,0.3502643704414367,0.0698510035872459
4.69496484375,-0.4069298553461208,2.3394277213089167,0.840011731493473,0.3907074928283691,0.4850567877292633,0.0205446146428585
4.715015625,-0.2600604741906747,2.4624071813762187,1.4846335773557424,0.3145537972450256,0.4705815017223358,0.0207004249095916
4.735066650390625,0.0605171586744487,2.519091191628575,1.9696657497644423,0.1880799084901809,0.3554885983467102,0.102091297507286
4.75511767578125,0.0765295878531411,2.4295121891208,1.8461855005681516,0.1094394028186798,0.1634210050106048,0.1725353300571441
4.775167724609375,-0.0610594488576054,2.3889669743731616,1.6897300334870815,0.0416126325726509,0.0022752252407372,0.2190515249967575
4.79521875,-0.3496277497280389,2.217702937477827,1.3390204068064688,-0.0491207912564277,-0.1566726267337799,0.2184856384992599
4.81526953125,-0.6395505339473485,2.02806781598106,0.5953554183900356,-0.0838631093502044,-0.2695693671703338,0.2034854739904403
4.83532080078125,-0.8501969523560255,1.6914684015870094,-0.2126835502594709,-0.0559113919734954,-0.2845367789268493,0.1583744287490844
4.855371826171875,-0.8996397593084722,1.343490537957847,-0.4879688103824853,-0.0215067230165004,-0.1533999294042587,0.090393416583538
4.875422607421875,-0.9551736496776342,1.1304359624288975,-0.0888192701816558,-0.0369160696864128,0.0647969990968704,-0.0183063633739948
4.8954736328125,-0.8090317790791391,0.908000687353313,0.6085965927571058,-0.0919418707489967,0.176548346877098,-0.1077064350247383
4.915524658203125,-0.4490690978195518,0.7566010423570871,1.0186837065577503,-0.0842648223042488,0.0534761324524879,-0.1353050470352172
4.935575927734375,-0.173745953371562,0.7059498825281858,1.2303946123927831,-0.0768572688102722,-0.1122013628482818,-0.0903393700718879
4.955626708984375,-0.2909760195992887,0.5725862449601292,1.114327854323387,-0.0744396522641182,-0.2489133179187774,-0.0816039517521858
4.975677734375,-0.6669920831024646,0.4056264811299741,0.945274771475792,-0.1183780804276466,-0.2621509134769439,-0.1739248037338256
4.995728759765625,-0.7636503763467073,0.2543732588671147,0.7115396653592586,-0.1767155230045318,-0.2093566209077835,-0.3043681979179382
5.01577978515625,-0.500640368168056,0.2432990532755851,0.4096510604709386,-0.1756525635719299,-0.1806129962205886,-0.3861513137817383
5.035830810546875,-0.2109068229105323,0.230143511365354,0.2687497208744287,-0.1614246219396591,-0.1517882794141769,-0.4042373895645141
5.0558818359375,-0.122016021862626,0.1462691502399742,0.219904733684659,-0.1281585097312927,-0.1931111216545105,-0.409078449010849
5.0759326171875,-0.1621219684101641,0.0273667303532361,0.1416401752650737,-0.0964004322886467,-0.2412054389715194,-0.4262629747390747
5.09598388671875,-0.2792617260059342,-0.1228384441614151,0.073298460444808,-0.0806831642985344,-0.2350945323705673,-0.4890838265419006
5.116034912109375,-0.3487029995659366,-0.2130836554929614,0.1170966856390237,-0.0999621599912643,-0.1624422073364257,-0.5583271980285645
5.136084716796875,-0.3647561626138165,-0.2757325654990971,0.1842559126764535,-0.1204994022846221,-0.1623980104923248,-0.6489604115486145
5.1561357421875,-0.3281935877615585,-0.2600841838598251,0.1706640251755714,-0.153900071978569,-0.2116222828626632,-0.7205344438552856
5.176186767578125,-0.0522870082692708,-0.1753470684252679,-0.0197656076997518,-0.1460106521844864,-0.2461502254009246,-0.7402395009994507
5.19623779296875,-0.0137979314669966,-0.2220246484480798,-0.0804758047282695,-0.1449311673641204,-0.2086056470870971,-0.767536997795105
5.216288818359375,0.1115800045767799,-0.2831355352319777,0.048480830052495,-0.1924979239702224,-0.1719382852315902,-0.7822304368019104
5.236339599609375,0.3358114058215171,-0.2630854845676571,-0.0096416885703802,-0.2201974838972091,-0.1856816411018371,-0.7373747825622559
5.256390869140625,0.3440002652350813,-0.287044963760674,-0.3513578614562749,-0.1529006958007812,-0.2790369689464569,-0.6711361408233643
5.27644189453125,0.2324879555996507,-0.3980272581726312,-0.2384329085439443,-0.120131067931652,-0.3335219025611877,-0.6014776229858398
5.296492919921875,0.0443801532680168,-0.6170021636612713,-0.1884440120160579,-0.1070984601974487,-0.3179838955402374,-0.5816508531570435
5.316543701171875,-0.1694450413072481,-0.8430449617095291,-0.2115320421367883,-0.0879119485616684,-0.2775062024593353,-0.609007716178894
5.336594970703125,-0.1568773092223331,-0.929869039485976,-0.0306353767603635,-0.0841519311070442,-0.266999214887619,-0.6244105100631714
5.35664599609375,-0.2918446191273629,-1.0390510795429349,0.0745639503359794,-0.1471061557531356,-0.3487165570259094,-0.6401947140693665
5.37669677734375,-0.8086671835504472,-0.984661317707598,-0.3934773397833108,-0.1873070299625396,-0.4759837985038757,-0.7035541534423828
5.396747802734375,-1.2949918799877167,-1.0524472252760082,-0.9442425058186054,-0.1966810673475265,-0.5411418676376343,-0.864197313785553
5.416798828125,-1.361409641008079,-0.911721169181168,-0.7389829680800437,-0.345560759305954,-0.4941470921039581,-1.026533603668213
5.436849853515625,-1.2339973130598665,-0.6609202158428729,-1.232166882762313,-0.4028828740119934,-0.5023870468139648,-1.1636672019958496
5.456899658203125,-0.6709130559384823,-0.137692825878784,-1.9412650001883505,-0.2849506735801697,-0.5037654042243958,-1.2007954120635986
5.476950439453125,-0.1457675573933869,0.2448025897063314,-1.8750129511237144,-0.2422947734594345,-0.3388814032077789,-1.2030998468399048
5.497001708984375,0.270729788775742,0.6448829810164869,-2.0749901645451785,-0.1528920382261276,-0.0307196993380785,-1.152884602546692
5.517052978515625,0.7402341371849179,1.1430961951028555,-1.8181746270924808,0.0800770744681358,0.1706518828868866,-0.9800034165382384
5.537103759765625,0.5606986771591007,1.3961819714426993,-0.38943186378479,0.1889339387416839,0.2624186873435974,-0.7749057412147522
5.55715478515625,0.1950800890296697,1.4851137620881198,0.2519143214076757,0.2872314751148224,0.0073102917522192,-0.6719026565551758
5.5772060546875,-0.6691022071242332,1.6653233219832182,0.8133435047984122,0.2797531187534332,-0.2225463986396789,-0.7119143009185791
5.597257080078125,-1.1081680165193974,1.7087942149192097,0.7397627202808856,0.1806804537773132,-0.3045829832553863,-0.8341500759124756
5.617307861328125,-1.2679545277193187,1.835087767970562,0.4592693701207637,0.0563448593020439,-0.1211049035191536,-0.977609634399414
5.63735888671875,-1.00110684107393,1.9076143672600387,0.3363327262818813,-0.0404262207448482,0.0929333418607711,-1.0733438730239868
5.657409912109375,-0.397876086198911,1.8289242769047616,0.5349252073466777,-0.1116630807518959,0.1428168714046478,-1.035714864730835
5.6774609375,-0.043452772757411,1.6007137794286013,0.4587941538244485,-0.0758809521794319,0.052266675978899,-0.925839066505432
5.697511962890625,0.0580561023231595,1.2997897817887365,0.505989035719633,0.0002522950526326,-0.0183815937489271,-0.7948843836784363
5.71756298828125,0.0553960893336683,0.8794341527562588,0.9871393982589244,-0.0021539477165788,0.0029872856102883,-0.7222422957420349
5.73761376953125,-0.1677275333322584,0.5972620557289571,1.3853513653486966,-0.0509505309164524,0.0761844739317894,-0.717674195766449
5.7576650390625,-0.3411624845258891,0.5016900233514606,1.548790115445852,-0.0926400646567344,0.1033354997634887,-0.7307762503623962
5.77771484375,-0.4749364564605057,0.4910452952183782,1.6686784776300192,-0.1480392813682556,0.063606172800064,-0.7322165966033936
5.797765869140625,-0.4445974322982132,0.4492139131177216,1.6247364600509404,-0.2421676218509674,0.0299804899841547,-0.7254818081855774
5.817817138671875,-0.3282044379491359,0.5563656163908541,1.146575926977396,-0.2614273726940155,-0.0096253585070371,-0.6519526243209839
5.837867919921875,-0.1259244274780154,0.5965025425985455,0.965575216704607,-0.2600513994693756,-0.0913181155920028,-0.5082234144210815
5.8579189453125,-0.4110889843195676,0.3370922394122928,0.9692109428584575,-0.3040634989738464,-0.1406059861183166,-0.4305795729160309
5.877969970703125,-0.6210537771396338,0.0276142753735184,0.6464964075624943,-0.3306926488876343,-0.1461941003799438,-0.4223594665527344
5.898020751953125,-0.6413184934679419,-0.2413594635151326,0.3197819889754056,-0.3322870433330536,-0.0831945091485977,-0.4518612325191498
5.91807177734375,-0.5465042206551879,-0.6117908587537706,0.2423550504237413,-0.3591876029968261,0.0320909805595874,-0.4843238592147827
5.938122802734375,-0.3371300506720319,-0.9001089111901819,0.0882137055039405,-0.3081288933753967,0.1244378983974456,-0.52140873670578
5.958173583984375,-0.0259233266118913,-1.0693201802741736,0.2803320221185684,-0.2272114306688308,0.1765608340501785,-0.5180371403694153
5.978224609375,0.0292166325362399,-1.357860424093902,0.7042571071356535,-0.1883507519960403,0.1843576282262802,-0.5289514064788818
5.99827587890625,-0.022390622441098,-1.501273015858978,0.698607118549943,-0.1667069643735885,0.2145321369171142,-0.5516210198402405
6.018326904296875,-0.047250521072559,-1.4841143757872282,0.4105576539218425,-0.1265755295753479,0.260787695646286,-0.5500319004058838
6.038377685546875,-0.1449336638525128,-1.4939951338104902,0.2282791787981986,-0.0783937722444534,0.2590554356575012,-0.543104887008667
6.058427978515625,-0.3326975846499204,-1.51921506139338,-0.085301617449522,-0.0099828317761421,0.2386468946933746,-0.5489486455917358
6.078478759765625,-0.5177804496698081,-1.468926159005612,-0.3553571602255105,0.0245874878019094,0.2640235126018524,-0.5548361539840698
6.09852978515625,-0.8551447840217501,-1.4279039743959905,-0.4652490290522575,0.0071425344794988,0.3679584562778473,-0.6121653318405151
6.118580810546875,-1.0979458246473222,-1.3641373124063014,-0.6543009438335895,0.0053120264783501,0.4360076487064361,-0.6979626417160034
6.1386318359375,-0.918971797896549,-1.2424172047503292,-0.8722843540668487,0.0576179064810276,0.4593852460384369,-0.6923788189888
6.158682861328125,-0.9485600036915393,-1.2625892012938855,-0.7820844431817531,0.0835072249174118,0.4993418753147125,-0.6560404896736145
6.17873388671875,-1.1789176692642271,-1.5092096540771425,-0.4511462694197893,0.0077670458704233,0.4756572246551513,-0.6626434326171875
6.19878466796875,-1.4697088338159023,-1.6837877839565276,-0.9857646027743816,-0.1164266541600227,0.2488162815570831,-0.7131139039993286
6.218835693359375,-2.0437135672718285,-0.8891638849362731,-2.992304915949702,0.0225786957889795,0.1181818470358848,-0.8227866291999817
6.238886962890625,-1.5811387258648872,-0.0553430439721792,-3.404800259935856,0.1531614363193512,0.1081083267927169,-0.829215407371521
6.258937744140625,-1.1687153511364012,0.4655675934821367,-3.318931071731448,0.3032781779766083,0.1857191324234008,-0.7166443467140198
6.27898876953125,-1.355171038879454,0.7118753270544111,-2.784060809442401,0.5450556874275208,0.2035412043333053,-0.6691733002662659
6.299039794921875,-1.698121429735422,0.9879890008255838,-1.3041864093124866,0.6363826394081116,0.1793284565210342,-0.6661413311958313
6.31908984375,-2.049004074895382,1.236639059740305,-0.2589630708754062,0.666425347328186,0.060728695243597,-0.6849936842918396
6.339140869140625,-2.606606101213396,1.3200370355255902,0.135533675083518,0.7303364872932434,-0.0727002918720245,-0.8212950825691223
6.35919189453125,-2.6188009813979267,1.4590774035558105,0.7144774723768234,0.679807186126709,-0.0797122120857238,-0.9857388734817504
6.379242919921875,-2.705210267828405,1.675313239469379,1.0452297681778668,0.5563690066337585,0.0095558390021324,-1.1718807220458984
6.3992939453125,-2.8084125758886334,1.983128896319121,1.0290367582678794,0.4363723695278168,-0.00876019988209,-1.3355265855789185
6.419344970703125,-2.447208735461533,2.255726670923829,0.6116115566641092,0.4030833542346954,-0.2245480865240097,-1.419597029685974
6.439395751953125,-2.118349998322129,2.3748823349192736,-0.0247048176676034,0.4331826269626617,-0.4529954493045807,-1.4521887302398682
6.459447021484375,-2.2814276600219308,2.3898721065193413,-0.1609673915475606,0.3798003494739532,-0.4619298279285431,-1.5634299516677856
6.479498046875,-2.18115249145478,2.268710363398492,-0.2486433369129896,0.27141073346138,-0.3877965211868286,-1.7126753330230713
6.499548828125,-1.848278965716064,2.2963779763944445,-0.5307482139229774,0.2379197031259536,-0.4016302824020386,-1.80323326587677
6.519599853515625,-1.3638044271901248,2.2365680892065165,-0.831609813851118,0.3339471518993377,-0.5019707083702087,-1.761981725692749
6.53965087890625,-1.1697922596529124,2.107198343580216,-0.8100286811619997,0.4392960965633392,-0.6478740572929382,-1.7489631175994873
6.559701904296875,-1.2687705202773212,2.0484685067139563,-0.0844113906115293,0.363728791475296,-0.647952139377594,-1.7659680843353271
6.5797529296875,-1.4903860034026204,1.9266656892105936,0.3215215261191129,0.1864564567804336,-0.5549949407577515,-1.812558650970459
6.599802978515625,-1.6776225393250583,1.7771768462717532,-0.2718985402941704,0.2483572214841842,-0.5351617932319641,-1.9175220727920528
6.61985400390625,-1.4101152197271585,1.819939883199334,-0.3278840468883514,0.3905529081821441,-0.5447360873222351,-1.9752097129821775
6.639905029296875,-0.8286223224729299,1.597603684584051,0.6455091500908136,0.3008974194526672,-0.6570534706115723,-1.9838005304336548
6.6599560546875,-0.6172160986728966,1.361589966011047,0.9186579827070236,0.165690928697586,-0.8509142398834229,-1.986159086227417
6.6800068359375,-0.4165110824335366,1.327834849794954,0.554143702557683,0.0950081720948219,-1.016566276550293,-1.9918246269226076
6.70005810546875,-0.4214600100778043,1.165495293111354,0.5632873784780502,-0.0491959452629089,-1.0166505575180054,-1.977078437805176
6.720109130859375,-0.5366853488869965,0.909532865356654,0.7750865471184253,-0.3296906054019928,-1.00053870677948,-1.9863744974136357
6.740159912109375,-0.7452916397701949,0.8710897374548018,-0.6063397537410259,-0.3504661917686462,-0.9673193693161012,-2.054835557937622
6.7602109375,-0.5613186356883496,0.9589845862679184,-1.929455319929123,-0.0477061606943607,-0.8660322427749634,-2.037153720855713
6.780261962890625,-0.1985902891077101,1.1385938421823083,-1.8463158489495517,0.1809143275022506,-0.7703847289085388,-1.9228312969207764
6.80031298828125,-0.1259599006501957,1.096087702625245,-0.9492810845077038,0.1547849327325821,-0.6416040658950806,-1.7938417196273804
6.820364013671875,-0.5992092808065935,0.9355532956674696,-0.4734259057670831,0.0627916902303695,-0.4165703654289245,-1.780604362487793
6.8404140625,-0.6037920785522088,0.9377762324139476,-0.3264005303323268,0.0638412088155746,-0.2571209073066711,-1.8284183740615845
6.860465087890625,-0.1989255854766815,1.0445686739206312,0.3583072422027588,0.0415482521057128,-0.1880771666765213,-1.8110514879226685
6.88051611328125,-0.0101356460997834,1.0125320520602166,0.8156313234746456,-0.0108149033039808,-0.1835604757070541,-1.7868866920471191
6.900567138671875,0.1339796140419319,0.9567122574217616,0.932114845651388,-0.0004829950630664,-0.1837526112794876,-1.7035776376724243
6.920617919921875,0.26436116705928,0.814279470474273,1.009382209727168,0.0615076720714569,-0.2679727077484131,-1.628545165061951
6.940669189453125,0.3057436363486573,0.7654267383694648,1.4707202028155326,0.0453676097095012,-0.4022257924079895,-1.578990459442139
6.96072021484375,0.1757571470635011,0.6087583591900766,1.6823451839327812,-0.1071723699569702,-0.4224823117256164,-1.6045153141021729
6.98077099609375,0.479437859532982,0.617938129337132,1.1807120053350926,-0.213046908378601,-0.3962763845920563,-1.5668120384216309
7.000822021484375,0.6509563826460391,0.5806830421760678,0.7065694757312536,-0.1850105375051498,-0.4446593821048736,-1.491550087928772
7.020873046875,0.4895243327287957,0.3697904669865965,0.6621370442867278,-0.1893011033535003,-0.4551276266574859,-1.4643265008926392
7.040924072265625,0.4908353787947446,0.2678684079952538,0.6054214698523283,-0.2680010497570038,-0.4109594821929931,-1.4892956018447876
7.06097509765625,0.8552933256469667,0.1928252958402037,0.4100906209319829,-0.3376883566379547,-0.3608985245227813,-1.4483976364135742
7.08102490234375,1.122286850503832,0.2009567259781062,-0.187682964515686,-0.2503344118595123,-0.4183257222175598,-1.3669021129608154
7.101076171875,0.9445328670673072,0.0476056546531617,-0.2581500009268522,-0.2080577462911605,-0.4146277904510498,-1.319947600364685
7.121127197265625,0.9928420668799428,-0.0456578815862536,-0.2749059054166078,-0.239785298705101,-0.3593448400497436,-1.2766305208206177
7.14117822265625,1.1531503369316458,0.0579373713143169,-0.6362929934561252,-0.1707745492458343,-0.3339092433452606,-1.1569392681121826
7.16122900390625,0.8534703480035066,0.0695223029069602,-0.6792518452167511,-0.0693628937005996,-0.406087726354599,-1.090429663658142
7.1812802734375,0.0843972159557044,0.1150385840654373,-0.2160351987749338,-0.2110192030668258,-0.4115776121616363,-1.1637476682662964
7.201331298828125,-0.3446098485007882,0.3254106425121426,-0.2814385220557451,-0.4746761620044708,-0.4426661133766174,-1.26467764377594
7.221382080078125,-0.3079192633546889,0.5799392380714417,-1.2323404857635498,-0.6099222898483276,-0.5180323719978333,-1.3273308277130127
7.24143310546875,-0.3099883977789431,0.8485463356047869,-2.098808262506127,-0.5697553753852844,-0.3668780028820038,-1.363448143005371
7.261484130859375,-0.0182448278732597,0.7788556903935968,-1.8796102157860992,-0.5788246393203735,-0.1144984140992164,-1.378342866897583
7.28153515625,0.5055502059109509,0.6151937990650534,-1.0802309389322995,-0.6639463305473328,0.0394634306430816,-1.320536971092224
7.3015849609375,0.7303218149796128,0.5488268914490938,-1.0986679283767935,-0.5156722664833069,-0.0602155923843383,-1.182819128036499
7.3216357421875,0.835282072623074,0.5447802464067936,-0.8206915294736623,-0.216325044631958,-0.2830223143100738,-0.9795021414756776
7.34168701171875,0.3168149558633565,0.3097013244658708,-0.1086643728584051,-0.0696448758244514,-0.2950360774993896,-0.8662964701652527
7.361738037109375,-0.2788129227925092,0.0291086055845022,0.7918827836185693,-0.065695010125637,-0.0736887156963348,-0.8369725942611694
7.381788818359375,-0.3746384915396571,-0.1760914570517837,1.378502522367239,-0.1017439886927604,-0.0581042654812336,-0.834695041179657
7.40183984375,-0.5099293708432465,-0.2627053261436521,1.6942057175964116,-0.1254374831914901,-0.1542320847511291,-0.8529927134513855
7.42189111328125,-0.913714608020708,-0.3149136522866785,1.4983102205306291,-0.0984591245651245,-0.2247586250305175,-0.9455500841140748
7.44194189453125,-1.1077231222961097,-0.2076923178434372,1.2533452798694371,-0.1262291073799133,-0.2362595498561859,-1.0946645736694336
7.461992919921875,-0.9179660549201072,-0.0011032850667834,1.2255150236576795,-0.2959537506103515,-0.1794833391904831,-1.1728408336639404
7.4820439453125,-0.8628978093013167,0.1257195525556802,0.4967413149029016,-0.3949012160301208,-0.1421615034341812,-1.223106861114502
7.50209521484375,-0.6575028086148202,0.1875770199231803,-0.3945668885856866,-0.3383103013038635,-0.1570961475372314,-1.24871826171875
7.522145751953125,-0.0956857218850404,0.2567803200088441,-0.660251376670599,-0.2335280627012252,-0.1537924855947494,-1.199201583862305
7.54219580078125,0.0666040773726999,0.360118164082244,-0.3365671195596456,-0.1637293100357055,0.035930186510086,-1.1176756620407104
7.562246826171875,-0.2082258401982486,0.1692111229535192,0.1787549771726131,-0.0966060012578964,0.2223492264747619,-1.049579381942749
7.5822978515625,-0.318658172577247,-0.0152992759406566,0.7588339159756898,-0.0779978856444358,0.1935407817363739,-1.073004126548767
7.602348876953125,-0.3311414047164842,-0.1091778753384947,1.081253852239251,-0.0946276932954788,0.0235748868435621,-1.136699676513672
7.622399658203125,-0.2450892611606046,-0.1831372108448296,1.3027099070191384,-0.2160194367170334,-0.0825477540493011,-1.13878333568573
7.64245068359375,-0.4294089597882702,-0.1438144505642354,0.6754290720582008,-0.2303303778171539,-0.0643024817109108,-1.132639765739441
7.662501953125,-0.5363214840106666,-0.2539418086472899,0.4225070349127054,-0.2008733600378036,0.0124625563621521,-1.1551510095596311
7.682552734375,-0.3443857574213296,-0.4605338370986283,0.7843395286321639,-0.2680715024471283,0.0251614302396774,-1.1586185693740845
7.702603759765625,-0.1438927399648353,-0.5129875893700867,0.6603384704321622,-0.27395960688591,-0.0091967890039086,-1.0990562438964844
7.72265478515625,0.1381187231406569,-0.6481746429730206,0.3478746955156326,-0.1925510019063949,-0.0562317445874214,-1.005541205406189
7.742704833984375,0.1745641744192689,-0.8488314361564815,0.3478974918693304,-0.1248646676540374,-0.0363438203930854,-0.926566243171692
7.762755859375,0.1372756964452564,-1.1220869440175592,0.6434142236381769,-0.1053110361099243,0.012666480615735,-0.8814628720283508
7.782806884765625,0.1888705303324386,-1.2650886168941855,0.7893488812267779,-0.0879891440272331,0.0113844387233257,-0.86407470703125
7.80285791015625,0.132246104780212,-1.374358554430306,0.8391367022246122,-0.1046547815203666,0.0536388978362083,-0.867009699344635
7.822908935546875,-0.0164219963602721,-1.4102750864639877,0.6555944907754659,-0.0970486551523208,0.1780495643615722,-0.8823109865188599
7.8429599609375,0.1652872275080531,-1.3373407831564543,0.5658844092339277,-0.0531284213066101,0.2078700065612793,-0.8556616902351379
7.8630107421875,0.2789075605397113,-1.3248784842073915,0.7406786660820245,-0.068135991692543,0.1914150565862655,-0.8018625974655151
7.88306201171875,0.2026938519690185,-1.3469501768924297,0.4997130241900682,-0.0746730118989944,0.1556188464164734,-0.7716015577316284
7.903113037109375,0.0214495056660845,-1.3998160901613532,0.2849322093904018,-0.1004676818847656,0.0464411973953247,-0.7618963718414307
7.923163818359375,-0.1217601108727976,-1.4584300455629824,-0.1283376260995865,-0.1929133236408233,-0.0630410611629486,-0.7621628046035767
7.94321484375,-0.1277799739505164,-1.4800433269560336,-1.1551485250115394,-0.2258700579404831,-0.0897157490253448,-0.7519732117652893
7.9632646484375,0.0255244634874165,-1.6147092792943118,-2.0381033261746166,-0.1818453073501587,0.0543605424463748,-0.6662372350692749
7.983315673828125,0.1439132347635924,-1.7941478548169134,-2.249949256566167,-0.1295684725046157,0.1670262515544891,-0.4915590584278106
8.00336669921875,0.1185382262168452,-2.0560043090462683,-2.3585130916595456,-0.0707163661718368,-0.0074186441488564,-0.2745859324932098
8.02341748046875,-0.5828469787443057,-2.218177130860836,-3.1120880641937254,0.1200902387499809,-0.268943578004837,-0.3000829517841339
8.04346875,-0.982107030114904,-1.5612006842076778,-2.9429946493357417,0.2271865606307983,-0.2358914762735366,-0.4339402616024017
8.063519775390626,-0.4663095709558576,-1.0772104220673442,-2.132015535581112,0.1315817385911941,0.0330100283026695,-0.3710121512413025
8.08357080078125,-0.0831471793619915,-0.7533443786486983,-2.0600626445263623,0.1965377181768417,0.0737607255578041,-0.2347991019487381
8.10362158203125,-0.2641044888844713,-0.3802836578197777,-1.5375468368977308,0.3309111893177032,-0.0687994137406349,-0.2184108197689056
8.1236728515625,-0.4110051784936338,0.0814697842016816,-0.4868909520179033,0.2510389685630798,-0.1443917453289032,-0.2736073434352875
8.143723876953125,-0.3629020226471126,0.6419166054915636,-0.2826560811519623,0.1092169731855392,-0.0213002748787403,-0.3382405638694763
8.163773681640626,0.221919014382828,1.1461913846392184,-0.5473574034184218,0.1636275202035904,0.1028151363134384,-0.27539724111557
8.183824951171875,0.5888125726178288,1.439255535624176,-0.2779255454987287,0.3207530975341797,0.1343768239021301,-0.1112110540270805
8.203875732421874,0.6437978891935199,1.4551713360279797,0.3214496299266815,0.4632496535778045,0.0308844894170761,0.0370933003723621
8.2239267578125,0.4625619453927502,1.2812412947937846,0.9948977573007344,0.4884855449199676,-0.0941100865602493,0.089467778801918
8.243977783203125,0.3974369275966659,1.2278602716095746,1.465784499979019,0.4007570445537567,-0.1481020301580429,0.1288029551506042
8.264028564453126,0.2472165555128827,1.2044167060494422,1.5327444050520658,0.2834598422050476,-0.1449490487575531,0.1059531196951866
8.284079833984375,0.193148408581037,1.166284689923376,1.2305337286025284,0.1829301714897155,-0.2061882466077804,0.0689774379134178
8.304130859375,0.091706607387308,1.0795496786698695,0.6292132643282413,0.1188296228647232,-0.2702784836292267,-0.017314750701189
8.324181640625,0.1874264690039679,1.0539743617780506,0.1039537109494209,0.1202861070632934,-0.2876375019550323,-0.1002213507890701
8.344232666015625,0.2456227469827979,0.9817173732101916,0.1419458802133798,0.0660562068223953,-0.1893958896398544,-0.1326197981834411
8.364283935546876,0.458916647692956,0.9985160939283668,0.3974813147276639,0.0290628559887409,0.0104544106870889,-0.1214223578572273
8.384333740234375,0.8634660376433283,0.9281047332271932,0.8544950148761272,0.0083918236196041,0.056127306073904,-0.0546165630221366
8.404384765625,0.9951832962438464,0.8139505307808518,1.1594903536081314,0.0002387822605669,-0.0291245430707931,0.0260399281978607
8.42443603515625,0.6905050606369972,0.5997931085765361,0.9742916071236132,0.0541091188788414,-0.0693526864051818,0.0475623421370983
8.44448681640625,0.6463678127467631,0.3443706329174339,1.2335866864323617,0.0127957221120595,-0.0639002919197082,0.0727382823824882
8.464537841796876,0.5893546070726589,0.1686582383111119,1.4227110819280149,-0.0556856989860534,-0.0657282322645187,0.1093856170773506
8.4845888671875,0.385845895056799,-0.0815291131734848,1.1153098510980606,-0.0372564308345317,-0.1701134741306305,0.079114131629467
8.5046396484375,0.3445620273036882,-0.3177317784473299,1.1040829391628504,-0.0632728636264801,-0.232682779431343,0.0679608508944511
8.52469140625,0.2474401716683059,-0.5119233942046761,0.9587304653763772,-0.0958073139190673,-0.2614524960517883,0.0566103383898735
8.544742431640625,0.0569022926455363,-0.7200533728130162,0.7681547020286321,-0.0818827077746391,-0.2584677934646606,-0.0023512654006481
8.56479345703125,-0.0085827541019767,-0.7964107824370265,0.376665905714035,-0.0146561684086918,-0.1967435777187347,-0.0543077662587165
8.58484326171875,0.2741808790776878,-0.8959196428067981,0.3871346927583217,0.0520442090928554,-0.2307954281568527,-0.0493432730436325
8.604894287109374,0.3230499047301709,-0.9021104602709412,0.4299403997838497,0.1004267334938049,-0.33563232421875,-0.0513063706457614
8.624945068359375,0.4485475581634789,-0.7827263943471015,0.1555313379734754,0.1890040934085846,-0.4527895450592041,-0.020620172843337
8.64499609375,0.2745014162689447,-0.7406845113009214,-0.1296416944354772,0.2315440773963928,-0.4972014427185058,-0.0220071133226156
8.66504736328125,0.0523027264282107,-0.7495083076171577,-0.3906476693153381,0.1801002621650695,-0.506388247013092,-0.0771334543824195
8.68509814453125,-0.1578132383655756,-0.6849788445614278,-0.7217565234690905,0.0827726125717163,-0.4818183481693268,-0.1512339860200882
8.705149169921874,-0.2951691604401916,-0.5751311071373522,-1.2466454899698496,0.037079494446516,-0.4364374279975891,-0.2190471589565277
8.7252001953125,-0.1962144998870789,-0.3685580025821924,-1.5895681160360573,0.0782772153615951,-0.3217975497245788,-0.2673779129981994
8.7452509765625,-0.088762133166939,-0.1558051864787936,-1.1149743355333803,0.0235295407474041,-0.1458609998226165,-0.2952191531658172
8.76530224609375,0.2601366446994245,-0.1108674358606338,-0.6272977860957384,-0.1152871996164321,-0.2001729607582092,-0.2914539575576782
8.785352294921875,0.1579258318945765,-0.0347042336344718,-0.9233815040975808,-0.147353321313858,-0.355695903301239,-0.3084933459758758
8.805403076171874,0.1438864928871393,0.0138461545228958,-1.0792501112014057,-0.1895153671503067,-0.3935663402080536,-0.329961359500885
8.825454345703125,0.0213899940311908,-0.0442580977909266,-1.3354127377033234,-0.2654815912246704,-0.212369903922081,-0.3533894419670105
8.84550537109375,0.12305296369493,-0.1048166113890707,-1.8554653700888155,-0.2146708816289901,-0.0258765779435634,-0.3682173192501068
8.86555615234375,0.481064291691035,0.0571845071204006,-1.3822282648921012,-0.1594971418380737,0.2207376658916473,-0.2397813200950622
8.885607177734375,0.6595990502417087,0.2092649739876389,-0.8296388060390949,-0.0182529985904693,0.3821398615837097,-0.0264045633375644
8.905658447265624,0.2339091475091874,0.4189386749066412,-0.9515729948371648,0.4882044196128845,0.0540728271007537,-0.1226525083184242
8.925709228515625,-0.3496678625427186,-0.1397666364781558,0.371969856852293,0.5158905982971191,-0.1397411078214645,-0.2432971447706222
8.94576025390625,-0.627376696550846,-0.1421831961005926,1.4672750307977198,0.2329122275114059,0.0230155251920223,-0.365731805562973
8.965810546875,-0.7865250559777021,0.2147977659344673,1.0173854834407567,0.1013238057494163,0.1690970361232757,-0.4732031524181366
8.985861328125,-0.9299617592707276,0.4928464994214475,1.2484119151204824,0.0162743385881185,0.2532325088977813,-0.5900515913963318
