timestamp,acc_x,acc_y,acc_z,gyro_x,gyro_y,gyro_z
0.109087890625,-0.6078878599658608,-0.6684812256816774,-1.019555813217163,-0.0028020858298987,0.2826872169971466,-0.2580651342868805
0.12913916015625,-0.4924840227846055,-0.7008293977092951,-0.4835211833238601,0.0105407834053039,0.384973406791687,-0.2354907393455505
0.149188720703125,-0.5771251304987818,-0.8868700749106705,0.1243856736034154,-0.0889775976538658,0.4107440412044525,-0.2514815926551819
0.16923974609375,-0.4710966225693002,-0.966021279971674,0.2446691725850105,-0.1997475922107696,0.2161280363798141,-0.2340234518051147
0.189290771484375,-0.6385255017485469,-0.9386122448466716,-0.6333563554823398,-0.2058929204940796,-0.0125552266836166,-0.2479919195175171
0.209341796875,-0.7202140432674438,-0.8850890367127955,-1.657234708073735,-0.2211408615112304,-0.0067747710272669,-0.3089969158172607
0.229392822265625,-0.5349622879540548,-0.7449895150184631,-2.446727381685376,-0.2249761968851089,0.092875063419342,-0.3499426543712616
0.249443603515625,-0.0969234469864517,-0.4786759352497756,-2.959841154718399,-0.1497510969638824,0.1440257579088211,-0.2921516597270965
0.269493896484375,0.0841965057518333,-0.3194772338751703,-3.0172184079319235,0.02830221503973,0.1346320211887359,-0.1979379802942276
0.289544921875,-0.234381733456999,0.0039362434703856,-2.3426859924525023,0.2268379777669906,0.1902607977390289,-0.1651214957237243
0.309595703125,-0.2770771850410848,0.3924645094789564,-0.771653650060296,0.2696829438209533,0.2312526851892471,-0.1284309476613998
0.32964697265625,-0.2763987743228673,0.8145731196586042,0.4109083670556545,0.2652077674865722,0.1812012791633606,-0.089366503059864
0.349697998046875,-0.3687148005791008,1.033116794123128,0.7784370265901088,0.2945447266101837,0.0807579159736633,-0.1044534519314765
0.369748779296875,-0.3620442367739975,1.1428182549443096,0.9823054022312164,0.2981261909008026,0.0192474387586116,-0.0825495645403862
0.389799072265625,-0.2572317170381545,1.3061509873837231,1.121797459551692,0.2750292420387268,-0.0115086669102311,-0.0307845380157232
0.40985009765625,-0.2125664266858249,1.339338240583986,1.4371072715491056,0.1943019330501556,-0.0585506334900856,0.0086513245478272
0.42990087890625,-0.3192862413477152,1.2977818029671906,1.1047206525444984,0.1786600351333618,-0.1974742859601974,-0.0123699773102998
0.449951904296875,-0.3367148574672639,1.320654582902044,0.8433698097497224,0.1206680238246917,-0.2835385203361511,-0.0285693909972906
0.4700029296875,-0.1700679589785635,1.446055571027845,0.5517313807189465,0.0210220962762832,-0.3275587558746338,-0.0178186930716037
0.490053955078125,-0.1417365117790177,1.4068848595038057,-0.2803489732533693,-0.0052092587575316,-0.3723836541175842,0.0036903605796396
0.51010498046875,-0.3562672608077525,1.2094542618252335,-1.2114847447395325,0.0708353817462921,-0.2927572727203369,-0.0616332255303859
0.53015478515625,-0.2423108459558337,1.085976204586029,-0.9515642270088196,0.0583553835749626,-0.0558819957077503,-0.1050137653946876
0.5502060546875,0.0587062367949634,1.1533528737664225,-0.3740969320088624,0.0244991965591907,0.1080983132123947,-0.0398845709860324
0.570257080078125,0.0789695283511653,1.2213250246219336,0.1295049163132905,0.0860743895173072,0.1148484349250793,0.0137190353125333
0.590307861328125,0.0754862528126686,1.0650896300323307,1.022331123149395,0.0455367788672447,0.0623258426785469,0.0364740714430809
0.61035888671875,0.0352132426025345,0.9227468594558536,1.4144324984043837,-0.0340631008148193,0.0419087298214435,0.0255278423428535
0.63041015625,-0.0055747679250314,0.7083477374501526,1.5968670408725738,-0.1350490599870681,0.0577110238373279,0.0129899345338344
0.6504609375,0.2973394171513617,0.6040203708827495,1.4156705157667395,-0.1705848276615142,-0.0398015342652797,0.0782359018921852
0.6705107421875,0.4412770191712304,0.5088244052760302,0.9475584984987974,-0.0884255915880203,-0.2141278237104416,0.1856298148632049
0.69056201171875,0.2141767114266753,0.2628437117010355,0.7534259194523095,-0.0274550020694732,-0.3245656490325928,0.2384441047906875
0.71061279296875,-0.21792824597992,0.0307205708257853,0.665221566298604,-0.0403172858059406,-0.2783152759075165,0.212361678481102
0.730663818359375,-0.3691755499586462,-0.0937076267451047,0.5300251603454351,-0.0543381497263908,-0.2608632147312164,0.1704170405864715
0.75071484375,-0.6424448671493679,-0.284292157921195,0.3106879974156618,-0.0346640311181545,-0.3319209218025207,0.0692144855856895
0.770765625,-0.8965982727207243,-0.3472971878886222,0.1258516545027494,-0.0545593686401844,-0.3973942995071411,-0.0693575739860534
0.79081689453125,-0.9891340061422436,-0.3319445743255317,-0.136307582065463,-0.1193628013134002,-0.3752313256263733,-0.1973281651735305
0.810867919921875,-0.9016951574683189,-0.2955719690874219,-0.4790168576419353,-0.1375922113656997,-0.2922315001487732,-0.3280013799667358
0.830917724609375,-0.7063511568054557,-0.2030219879448414,-0.5762701941698789,-0.110113576054573,-0.1700467020273208,-0.4198988974094391
0.850968994140625,-0.3392175244705751,-0.184245683543384,-0.0096241529136896,-0.1169792041182518,-0.1367896795272827,-0.4420313835144043
0.87102001953125,-0.051998190523684,-0.1944279817964881,0.2785246804356575,-0.1019439995288848,-0.2276730984449386,-0.4248034954071045
0.8910703125,0.0402820337668061,-0.2740930546637624,0.3754793262779712,-0.078315794467926,-0.2860741913318634,-0.3971362113952636
0.911121337890625,-0.0198795438024681,-0.3798668937124311,0.4515741394430398,-0.0586575269699096,-0.278213232755661,-0.3710914254188537
0.93117236328125,-0.0654357277130708,-0.4639142733171582,0.6849450884222984,-0.0782543793320655,-0.2734044194221496,-0.358586311340332
0.951223388671875,-0.0787154622585512,-0.6420546987880021,0.7220879473805427,-0.1020544841885566,-0.3614971339702606,-0.3586031794548034
0.9712744140625,-0.1126335139513947,-0.6614752924423665,0.3321130627602338,-0.0720254704356193,-0.4551428258419037,-0.3455789685249328
0.9913251953125,-0.3347631754102185,-0.6621979806937277,-0.0477671288251876,-0.0273737702518701,-0.429797887802124,-0.3536132574081421
1.01137646484375,-0.5841674136931077,-0.7700394928619265,-0.1589689112067222,-0.0274986419826746,-0.3759677112102508,-0.4072306752204895
1.031426513671875,-0.6190862033937126,-0.8044231162399053,-0.3822632873296737,-0.0303562544286251,-0.3549333214759826,-0.4640657603740692
1.051477294921875,-0.6219641699828207,-0.8284711504992097,-0.5763005893081427,-0.0171110387891531,-0.3231337666511535,-0.5346788763999939
1.071528564453125,-0.5652149855397641,-0.7573362978290766,-0.5916840364009142,0.0007393788546323,-0.2840794026851654,-0.6089398264884949
1.09157958984375,-0.7723532496970147,-0.5787012937743217,-0.3551104919880628,-0.0755636245012283,-0.2363819032907486,-0.7148484587669373
1.11163037109375,-0.792322124883905,-0.3744681034088135,-0.5367366406828165,-0.1694834679365158,-0.3375273644924164,-0.7998725175857544
1.131681396484375,-0.6575057312242686,-0.2791361633975058,-1.2021300564169883,-0.2067619562149047,-0.5524088740348816,-0.9669343829154968
1.151732666015625,-0.3304367270458489,-0.1251960401382297,-1.4366250409901142,-0.3310716152191162,-0.5271884799003601,-1.0956822633743286
1.171783447265625,0.2008828570242971,0.0993539620690047,-2.1685230192452667,-0.3697724342346191,-0.2792950272560119,-1.1192432641983032
1.19183447265625,0.8231925525091588,0.20125264018476,-2.439383448663354,-0.2293851226568222,-0.0418242588639259,-1.0771160125732422
1.211885498046875,1.479414089141786,0.2850610234018415,-1.6339117001533507,-0.0347947105765342,0.0909628123044967,-0.9056241512298584
1.231936279296875,1.4542118433460591,0.2843501717187464,-0.4987240131527185,0.119765393435955,0.1082681491971015,-0.7562582492828369
1.251987548828125,1.2120134447887538,0.4431447492718696,0.3209627231925726,0.2583374083042145,0.0714331045746803,-0.6260866522789001
1.27203759765625,0.6014202713869512,0.5238637151062489,1.0439064106196163,0.3331167101860046,-0.0201342664659023,-0.5711667537689209
1.29208837890625,-0.102338384707272,0.4982935858462005,1.5076532184153797,0.2903675138950348,-0.1259547472000122,-0.6579552888870239
1.3121396484375,-0.3803046275425702,0.6675275051534175,1.6339198834598063,0.1266434639692306,-0.1786805838346481,-0.756369411945343
1.332190673828125,-0.4021127008553594,0.8887026971653104,1.0595809496134518,-0.0127531997859478,-0.087354227900505,-0.8400578498840332
1.352241455078125,-0.2834402172669768,0.9601879707083104,0.479028548079729,-0.1080515310168266,0.00762240588665,-0.9123457670211792
1.37229248046875,0.2547325936987996,1.0414366595052182,0.0496013585150241,-0.1330365538597107,0.0664034858345985,-0.8787113428115845
1.39234375,0.894841053789854,1.0320550101105124,-0.193444012260437,-0.0809077471494674,0.083071269094944,-0.6944294571876526
1.41239453125,1.146289949642867,0.8990145400822163,-0.2039157219141721,0.0048961238935589,0.1540705263614654,-0.4524054229259491
1.432445556640625,0.9343926543902604,0.4154739214055239,0.3465396475195884,0.011605342850089,0.1875935792922973,-0.2904212176799774
1.45249658203125,0.6297074775859713,0.0574519258849322,0.721899146810174,0.011538628488779,0.1773163825273513,-0.2062257379293441
1.47254736328125,0.4533192660773172,-0.1169960017435252,0.8945318417102098,0.016435757279396,0.1350608319044113,-0.1371176391839981
1.4925986328125,0.371418470047228,-0.2610946760766208,0.9828829098582268,-0.0069776973687112,0.094343677163124,-0.0573948323726654
1.512649658203125,0.2919088069373741,-0.3475162374667823,0.7553694547355174,-0.0177279710769653,0.0543403811752796,0.0311386380344629
1.532700439453125,0.2029573252107948,-0.429806398140639,0.3928378728359937,-0.0006429275963455,0.0371359288692474,0.1317131370306015
1.55275146484375,0.0742367276756093,-0.5284259084552526,0.1557300754159689,0.0090548992156982,0.0570979863405227,0.1914052814245224
1.572801513671875,0.020810257914476,-0.6657647332645952,0.234813549003005,-0.0297409743070602,0.1163907721638679,0.2232071757316589
1.592852294921875,0.0278116976417601,-0.6620923283621668,0.1392640937834978,-0.0086827278137207,0.1353742629289627,0.2448497712612152
1.6129033203125,0.2061792463993653,-0.494432599569112,0.1783972497761249,0.0654142275452613,0.1667632162570953,0.3012136220932007
1.63295458984375,0.1857620063904672,-0.484219833112508,0.6430874759018421,0.0706626698374748,0.2167002707719802,0.3448962569236755
1.65300537109375,0.168102394526638,-0.5959853868566453,0.9023428077220916,0.0470694899559021,0.2110358476638794,0.35593181848526
1.673056396484375,0.1806385258968919,-0.5220756626456976,0.9301701413244008,0.0526612922549247,0.2498096525669098,0.3702133595943451
1.693107421875,0.1064612733235582,-0.6036354632183909,1.016513961303234,0.0536691211163997,0.264701634645462,0.3699115216732025
1.713158447265625,0.022608612573333,-0.6721355834707617,0.98858375184834,0.0573610588908195,0.3147344291210174,0.3316349685192108
1.73320947265625,0.0507686852613464,-0.7340830672092735,1.286934245738387,-0.0294484682381153,0.3461489975452423,0.3295881152153015
1.753260498046875,0.1138865644861012,-0.7897489864602685,1.1238859562635422,-0.0638908743858337,0.2280483543872833,0.3552945554256439
1.773311279296875,-0.023665282019414,-0.8150609762407839,0.5541285049885512,-0.0460430569946765,0.0937715545296669,0.3711434304714203
1.7933623046875,-0.2946447347072884,-0.884591900845617,0.121301736113429,-0.0799606665968895,0.0811487361788749,0.3491384387016296
1.81341357421875,-0.4008741355037316,-0.9031080199409276,-0.3779910168379545,-0.1339071094989776,0.1457953304052353,0.3359490036964416
1.83346435546875,-0.4487164484569803,-0.9783724466964602,-1.229839316597581,-0.0776868462562561,0.1903816759586334,0.3464824259281158
1.853515380859375,-0.3955050827512517,-1.166054972820729,-1.5779606803506612,0.0508365929126739,0.2485235780477523,0.3764365017414093
1.87356640625,-0.4114103617610409,-1.3473361074700951,-1.0010744001090526,0.0881733521819114,0.3529537618160248,0.4011284708976745
1.893616943359375,-0.51573356360998,-1.4691110140532255,-0.499099860727787,0.1019122153520584,0.3990203440189361,0.4083628356456756
1.91366796875,-0.6042415758853777,-1.5766118960902094,-0.0794926389098167,0.0524031370878219,0.4190121293067932,0.3926676213741302
1.933718994140625,-0.6608372137345373,-1.770322596462816,-0.2286754846394061,-0.0751214176416397,0.2716419994831085,0.4158250093460083
1.953769775390625,-1.3519851023197174,-1.7123799644514917,-1.73296361053586,0.0144737074151635,0.1218649297952652,0.2628738284111023
1.973821044921875,-1.244328445199132,-1.0707615381889044,-2.0153186629146336,0.0547642856836319,0.1430872529745102,0.1052840650081634
1.9938720703125,-0.8330024372532964,-0.430819082314521,-1.795663520076871,-0.0056350398808717,0.2740321755409241,0.0779183804988861
2.0139228515625,-0.4526374212929979,0.2432062604255974,-2.056101339679956,0.1071600690484047,0.246927723288536,0.154793843626976
2.033973876953125,-0.3222241944957524,0.700921532972157,-1.5618945116907357,0.2571925520896911,0.0499626472592353,0.2411750257015228
2.054025146484375,-0.5182548987811431,1.072049970564246,-0.7542319751381874,0.2983281910419464,-0.069368377327919,0.2491110116243362
2.074075927734375,-0.6053428516581654,1.5108531835004686,-0.2540706226587295,0.2421476393938064,0.0205487143248319,0.2393562048673629
2.094126953125,-0.5620876472994685,1.8115419110797344,0.000520224481821,0.2137863039970398,0.2101158499717712,0.2390976846218109
2.114177978515625,-0.4877707670597359,1.9666765048205848,0.5093494520634413,0.2308083772659301,0.2960347533226013,0.276256263256073
2.134228759765625,-0.579323882652074,2.01302353771478,0.9350386241436004,0.2666364908218384,0.2089387774467468,0.289640873670578
2.154280029296875,-0.3902971023119986,1.9532583664514125,1.5540186637490987,0.2183403670787811,-0.0048018158413469,0.3196504712104797
2.1743310546875,-0.557497835291177,1.8446772879622877,1.6097271069675685,0.1351914405822754,-0.2279984802007675,0.3121243119239807
2.1943818359375,-1.0880202045690268,1.8047152799300847,1.2639233725070953,0.0394109599292278,-0.3070395588874817,0.2053088247776031
2.214432861328125,-1.3407847861304878,1.5459339953623712,0.696104195818305,-0.0828945785760879,-0.3402637541294098,0.0295764990150928
2.234483154296875,-1.2367206005439162,1.345334996780753,-0.2897247043639421,-0.1284144073724746,-0.3421535193920135,-0.1273485720157623
2.254533935546875,-1.162761995689943,1.197313303785026,-1.0500409678518772,-0.0893405973911285,-0.2259069085121154,-0.2648091316223144
2.2745849609375,-0.8271985732801258,1.0977141347832975,-0.9393582409083844,-0.0824538990855217,0.0137582616880536,-0.338573694229126
2.29463623046875,-0.486905053608492,0.9837820506550372,-0.4132388558298349,-0.0623792707920074,0.1863809823989868,-0.3502026200294494
2.31468701171875,-0.355690703028813,0.8556475459121167,0.4715595273733138,-0.040963128209114,0.1803631335496902,-0.3611450791358948
2.334738037109375,-0.3489458318784832,0.6884625950239598,1.2019576224595308,-0.0916530191898346,0.137240931391716,-0.3483924269676208
2.3547890625,-0.0201169966869987,0.5736093043975532,1.2098615274518727,-0.0739974677562713,-0.0489617250859737,-0.3220965564250946
2.37483984375,0.002114453137014,0.4360559600546956,1.402961840841174,-0.1005248576402664,-0.1469243913888931,-0.2946431636810303
2.39489111328125,-0.0430313324749469,0.2228117071725428,1.2158470316022634,-0.1382680386304855,-0.2002916038036346,-0.2737910449504852
2.414942138671875,-0.1515552191504277,0.0627856881283223,0.9301631270617248,-0.1450003534555435,-0.2730259895324707,-0.2794640660285949
2.434992919921875,-0.3261113746600225,-0.0909055749364197,0.6222399181842804,-0.143637016415596,-0.3101770281791687,-0.3296724259853363
2.4550439453125,-0.337173049563542,-0.2042297562994063,0.279665082642436,-0.1264458447694778,-0.3112721741199493,-0.3692948818206787
2.47509521484375,-0.4559375953495502,-0.3176325558565557,-0.1029658689558506,-0.0696007683873176,-0.2804968059062958,-0.4228330850601196
2.49514599609375,-0.4790890460953116,-0.4026023110032081,0.0192056357294321,-0.0522010773420333,-0.2563172280788421,-0.4961551129817962
2.515197021484375,-0.5612842950273305,-0.4489987359970808,0.0850491039931774,-0.0608952790498733,-0.2586507499217987,-0.5802857875823975
2.535248046875,-0.7519593540310859,-0.4752198034465312,-0.0781488230854272,-0.0579434931278228,-0.2516137361526489,-0.691102147102356
2.5552978515625,-0.6689931937918067,-0.4849767889596522,-0.1089934586822986,-0.0712367743253707,-0.2513372004032135,-0.7929713726043701
2.575348876953125,-0.4646512458221987,-0.3930057767488062,-0.3073252429842948,-0.0482306145131588,-0.2783946692943573,-0.848268985748291
2.59539990234375,-0.4490512333692982,-0.2797349330082536,-0.4192378039836883,-0.0078034945763647,-0.2586855590343475,-0.8876909613609314
2.615450927734375,-0.4843361895011737,-0.250686533178389,-0.1434872644364833,-0.0320621877908706,-0.2460982054471969,-0.9517509937286376
2.635501953125,-0.5265440767640248,-0.1753441458158195,-0.1581067414194345,-0.0636360049247741,-0.2734895944595337,-1.025295376777649
2.655552978515625,-0.404313279639557,-0.001594575715065,-0.3661597092688083,-0.0728412792086601,-0.3137888014316559,-1.067311406135559
2.675603759765625,-0.1435393051509745,0.0247252759337425,-0.5183423213362693,-0.0718579143285751,-0.3135169744491577,-1.079082727432251
2.69565478515625,-0.0666502911346033,0.0713964262157678,-0.5725239933788776,-0.0470609776675701,-0.244521677494049,-1.103316068649292
2.7157060546875,-0.307267411849834,0.0806383018136024,-0.395711382445693,-0.071968600153923,-0.0842393562197685,-1.1911057233810425
2.7357568359375,-0.4415402366846799,0.0950114028200507,-0.031402854001522,-0.212229922413826,-0.0257094167172908,-1.2689192295074463
2.755807861328125,-0.8457901687644421,0.1711066543765366,-0.5142939227283001,-0.2563402652740478,-0.0985137075185775,-1.40635347366333
2.77585888671875,-1.1633693139333277,0.249463128863275,-0.7019184350550174,-0.3421429097652435,-0.170678049325943,-1.6166234016418457
2.795909912109375,-1.0053419944256543,0.3587789513677358,-0.9874041866749524,-0.4977673888206482,-0.2304525375366211,-1.788748025894165
2.8159609375,-0.3806303888982161,0.6950908540572971,-2.15689804790318,-0.4048327803611755,-0.2348033785820007,-1.7809805870056152
2.836011962890625,0.2769799534779973,0.7074407786730676,-2.6177012034624814,-0.1848672181367874,-0.1697452962398529,-1.6412016153335571
2.856062744140625,0.2606687788147479,0.6807257171615958,-2.0647247911185027,-0.0376252904534339,0.0787264704704284,-1.5228745937347412
2.876113037109375,0.0664064359087497,1.0274036041080952,-1.209562836766243,0.1360603719949722,0.3612502515316009,-1.4045966863632202
2.896164306640625,-0.1115695927806198,1.2223404852747917,0.2164069546967744,0.2497797906398773,0.4951783418655395,-1.2464091777801514
2.916215087890625,-0.5481511110793799,1.5205452870838343,1.0483148747116326,0.348316341638565,0.4529350697994232,-1.1006616353988647
2.93626611328125,-1.0869976565882562,1.6614890045173465,1.866503481453657,0.3162444233894348,0.2074159532785415,-1.0293298959732056
2.9563173828125,-1.876227587610483,1.6702542025141418,2.223501979145408,0.1267235428094864,-0.1646137088537216,-1.0612179040908811
2.9763681640625,-2.3428581341490147,1.519762904534489,1.703980092635751,-0.0983088240027427,-0.3665058314800262,-1.2136883735656738
2.996419189453125,-2.256284743198007,1.394471514263004,0.4069914858728647,-0.1752780079841613,-0.3140652775764465,-1.3089500665664673
3.01647021484375,-1.8177526022881267,1.1503138713967054,-0.2179769804924726,-0.1879874914884567,-0.135217472910881,-1.3403011560440063
3.036521240234375,-1.4596628022283316,0.779802908115834,-0.2680325125157833,-0.1935899555683136,0.0526099018752574,-1.3189325332641602
3.056572265625,-1.1606618816055356,0.3643533904992044,0.0860918910443782,-0.1674771308898925,0.103473886847496,-1.2890926599502563
3.076623291015625,-0.9090265232697128,0.0882483384259045,0.5723714331656694,-0.0901515781879425,0.0534273535013198,-1.2497304677963257
3.096674072265625,-0.8006919668875634,0.0153689801760017,1.0717466037034988,-0.027537440881133,0.0125925913453102,-1.2301722764968872
3.11672509765625,-0.9100814391501248,-0.0263745044454932,1.8018857555925845,-0.1438282281160354,0.0946924537420272,-1.236061453819275
3.1367763671875,-1.1000682966940103,0.0119110948070883,1.873406100448966,-0.337936133146286,0.2436660528182983,-1.2817156314849854
3.156825927734375,-1.002670510194078,-0.0041449908502399,1.144800149476528,-0.4169643223285675,0.2725428342819214,-1.3804200887680054
3.176877197265625,-0.2633704755214974,0.1194822656013071,0.0614496172189712,-0.2242591232061386,-0.0085290595889091,-1.4073327779769895
3.19692822265625,-0.2443195188971236,0.1450441384896636,0.097989249587059,-0.1021277382969856,-0.125757023692131,-1.34657621383667
3.21697900390625,-0.1697846850577741,-0.1568076415196061,0.2037456260442733,-0.0786201506853103,-0.1906183511018753,-1.2567309141159058
3.237030029296875,0.0621224384466186,-0.482027072308585,-0.137646721714735,-0.0118820406496524,-0.1665419042110443,-1.1195735931396484
3.2570810546875,0.0155575615506619,-0.8322044187434017,-0.0260866274148225,0.0704174116253852,-0.0748908147215843,-1.0234867334365845
3.277132080078125,-0.1083456622980535,-1.2901853564888237,0.5763274773150682,0.0971631631255149,-0.0118730152025818,-0.9558586478233336
3.29718310546875,-0.1644915470857173,-1.5832381823621688,0.7564023049145937,0.1618828177452087,0.0272373147308826,-0.9652634263038636
3.317234130859375,-0.18868249694705,-1.8259926073670387,0.8438327510863542,0.212599441409111,-0.0262895841151475,-0.9877225756645204
3.337284912109375,-0.2455855933101847,-1.994584502443671,1.1097592312335969,0.1634857505559921,-0.0469104349613189,-1.0254145860671997
3.357336181640625,-0.078692501508072,-1.8965891153767704,1.0742623859167095,0.0734416618943214,-0.0699507296085357,-1.0313396453857422
3.37738720703125,-0.0031369097862392,-1.8418543394960465,0.2585731947749853,0.0686318278312683,-0.1107368320226669,-1.0327110290527344
3.39743798828125,0.1740255009653046,-1.7877604918673633,-0.2557382636100053,0.058916226029396,-0.0817823857069015,-0.9771379232406616
3.417489013671875,0.3573153816211968,-1.8849613675557075,-0.7415554489165544,0.0092562427744269,-0.087187722325325,-0.9184836149215698
3.437539306640625,0.6542105621363967,-1.9656758033454416,-1.4531447986364363,0.0063265245407819,-0.0018352540209889,-0.8227542042732239
3.457590087890625,0.5424473099472001,-2.098270502367616,-2.169026292592287,0.136969044804573,0.2012664824724197,-0.7039182186126709
3.47764111328125,0.5298950311597437,-1.9748352613568303,-1.8064304132848976,0.2475194782018661,0.4881484806537628,-0.5502382516860962
3.497692138671875,0.2491159228608012,-1.8840357771433889,-0.6292997735679149,0.2254099994897842,0.6420025825500488,-0.4204941689968109
3.5177431640625,0.084887118364498,-1.591878877196461,-0.5689245075821876,0.2609002590179443,0.4389022588729858,-0.3772954940795898
3.537794189453125,-0.0437861694302409,-1.0789845190677791,-0.1684843430489301,0.1714606583118438,0.2976880371570587,-0.3340755701065063
3.55784521484375,-0.1662690781522542,-0.5125774011339992,-0.4858288757443428,0.0833148658275604,0.2848838865756988,-0.2296057343482971
3.57789599609375,-0.5982382072847336,-0.1425360281262546,-1.3703583788782356,0.1582131385803222,0.1022113785147667,-0.1437883377075195
3.597947265625,-1.113475840603933,0.1120264697026461,-1.3504045551300048,0.1470220237970352,-0.0832722783088684,-0.1260969936847686
3.617998291015625,-1.5464102345719932,0.3271728298790752,-2.0373907939910887,0.1709615439176559,-0.1408945024013519,-0.1913674622774124
3.638049072265625,-1.4558432439401745,0.8352185789328068,-2.356841943576932,0.2817380130290985,0.0147808864712715,-0.1963818371295929
3.65810009765625,-1.5088482734188438,0.9794042739622294,-1.5258850406765936,0.3394246101379394,0.2609359622001648,-0.2296879887580871
3.678150390625,-1.4908756866157054,0.9045913173012436,-0.2369634205132722,0.355204164981842,0.3474002480506897,-0.3243972361087799
3.698201171875,-1.1955103460162877,1.1975599720224737,0.767556151613593,0.3610097169876098,0.3047904670238495,-0.3490547835826874
3.718252197265625,-1.0348530433312058,1.4087315102837978,1.4632488440215587,0.3412014245986938,0.2137499302625656,-0.3172417283058166
3.73830322265625,-1.0560498528778552,1.5128123547442256,1.7275696425378322,0.3231904804706573,0.0638230144977569,-0.2986960113048553
3.758354248046875,-0.9194618464358152,1.3278960784628986,2.017628108900785,0.2040736228227615,-0.2256399393081665,-0.3185575902462005
3.7784052734375,-0.9498504818934946,1.328871060974896,1.238503684568405,0.105472594499588,-0.3767237067222595,-0.3663771450519562
3.798456298828125,-0.8960380084894597,1.3580718748874965,0.0611421587049961,0.126457005739212,-0.3753899931907654,-0.4120080173015594
3.818507080078125,-0.6779720345392822,1.1365043225571512,-0.3383738767206669,0.1352196037769317,-0.3813709318637848,-0.4744162559509277
3.838558349609375,-0.5444825055692345,0.9948194313675164,-0.4119587528914213,0.0924675166606903,-0.2583194375038147,-0.5473071336746216
3.858609375,-0.2230136594854295,1.029379434225708,-0.6138596278518438,0.0799557194113731,-0.0734355971217155,-0.53413325548172
3.878659912109375,0.0718469464622438,0.9780096047334372,-0.4779501051932573,0.1288235336542129,-0.1225281432271003,-0.4391497075557709
3.8987109375,-0.0260970757436007,0.8153999989368022,0.0918546923547983,0.1426676958799362,-0.1781665682792663,-0.3867165744304657
3.918760986328125,-0.1533583778485655,0.561722174987942,0.4913122755914926,0.1347964257001876,-0.2082602232694625,-0.3915535807609558
3.93881201171875,-0.1060262063745409,0.41590091464594,0.9604302550315856,0.0512153506278991,-0.1381481140851974,-0.3841485381126404
3.958863037109375,0.3348934141937643,0.3345049263328313,0.920794410213828,-0.0088487826287746,-0.1530935019254684,-0.2903842329978943
3.9789140625,0.3373384692583233,0.1783624707236886,0.6364788714170455,0.0341309644281864,-0.3354835510253906,-0.1899159848690033
3.998965087890625,-0.1071868476517498,-0.0166239486731588,0.6098901396989822,0.0616295896470546,-0.4743551611900329,-0.1827365756034851
4.01901611328125,-0.1227501813560724,-0.1593688703097402,0.6158762283712625,0.0182522591203451,-0.4564672410488128,-0.187293991446495
4.03906689453125,-0.335695962748304,-0.2730086934931576,0.3486567858040332,-0.004120772704482,-0.3414344191551208,-0.2290525585412979
4.059117919921875,-0.3708144397394731,-0.355296662209928,0.3180582339227199,0.0001644939184188,-0.3049725890159607,-0.2765308022499084
4.079169189453125,-0.528488781091012,-0.4719418046891689,0.6270230608075856,-0.0260094534605741,-0.3839846551418304,-0.3418028354644775
4.09922021484375,-0.4818324265193194,-0.4718474044039845,0.6519365527898073,-0.0612649954855442,-0.3829911947250366,-0.3855849504470825
4.11927099609375,-0.3318011472668498,-0.471502390358597,0.5936620584756136,-0.076569378376007,-0.3617159724235534,-0.4034534096717834
4.139322021484375,-0.5168742580777034,-0.5427919951990247,0.6974538568615913,-0.0809350088238716,-0.3192608058452606,-0.47166907787323
4.159371826171875,-0.4851392129797488,-0.6322717751160264,1.0363356831043955,-0.1369573771953582,-0.3005015552043915,-0.5544689893722534
4.1794228515625,-0.2436726723609492,-0.6187263571053743,1.0841460665494205,-0.2090852111577987,-0.3347081542015075,-0.5891402959823608
4.199473876953125,-0.2712143391559831,-0.6292248086355626,0.836293003231287,-0.2672671377658844,-0.293702632188797,-0.6102521419525146
4.21952490234375,-0.3334149026064202,-0.7596371951825917,0.5337520719140768,-0.2814913988113403,-0.2784740030765533,-0.6695332527160645
4.239575927734375,-0.343162864562869,-0.8193924295738338,0.0483732780247926,-0.2547469139099121,-0.2274389415979385,-0.7367691993713379
4.259626953125,-0.1442144461998716,-0.7812864246718585,0.0214648128330707,-0.266813188791275,-0.1771792769432068,-0.7612202763557434
4.279677734375,-0.1532028402269817,-0.8366982960965484,-0.0736626175820827,-0.2986447215080261,-0.1851571947336197,-0.7789551615715027
4.29972900390625,-0.0151210698295384,-0.7502705241613089,-0.60034548176229,-0.2457351237535476,-0.2529219090938568,-0.7463927865028381
4.319780029296875,0.1232503859631717,-0.7020701184853911,-1.1747902140706776,-0.1104474440217018,-0.3717685341835022,-0.6740255355834961
4.339830810546875,0.050102805231139,-0.7527137525949626,-1.1183943731099366,-0.0333384685218334,-0.4540096819400787,-0.6307974457740784
4.3598818359375,-0.4042313004445284,-0.7234851738926023,-0.8583914377927779,-0.0759381279349327,-0.3981575965881347,-0.7011935710906982
4.37993212890625,-0.7651620960839093,-0.5034027455534785,-0.8092483444392681,-0.2156414240598678,-0.3850374221801758,-0.8312570452690125
4.39998291015625,-1.0768317249480637,-0.1184959579776972,-1.2823884190022945,-0.3405586183071136,-0.4645730853080749,-1.0090808868408203
4.420033935546875,-0.8052399125155061,0.2549028356991708,-1.8011755614966154,-0.3936341106891632,-0.6560065150260925,-1.1434870958328247
4.4400849609375,-0.0696576197244226,0.2672576556857675,-2.3861492866039278,-0.3997101485729217,-0.7565708160400391,-1.184038758277893
4.460135986328125,0.3419042062712833,0.0357280237242579,-3.370100117954612,-0.2923204600811004,-0.4300869405269623,-1.2379510402679443
4.48018701171875,0.9673495329007504,0.0958686772365123,-3.2801194027781486,-0.0988641232252121,0.1784235537052154,-1.2259154319763184
4.500238037109375,1.7288282642967998,0.4823000440310686,-1.831258565071225,0.1759127080440521,0.3444343507289886,-0.998357594013214
4.520288818359375,1.6223267685607077,0.9186724496237934,0.0833738642573356,0.4128203094005584,0.1109426468610763,-0.7023463845252991
4.540340087890625,0.9150389154270292,1.0384539173673837,1.6797990065813064,0.4656417667865753,-0.1755493730306625,-0.5191960334777832
4.56039111328125,-0.1389513745725154,0.9065708737459032,2.9207021535068747,0.238142728805542,-0.2386750429868698,-0.5476316213607788
4.58044091796875,-0.6398797659017146,0.7720021712370216,2.56214532045722,0.0177750308066606,-0.1374875754117965,-0.6691997051239014
4.6004921875,-0.4912146969685331,0.6457748152896762,1.896668318092823,-0.1226270943880081,-0.0806667357683181,-0.7651287913322449
4.620543212890625,0.0694063849097117,0.5734922538891435,1.2658236531704663,-0.2081720381975174,-0.1052484586834907,-0.7484287619590759
4.640593994140625,0.5396459522582591,0.4429631090946495,0.4508288740336895,-0.1913303136825561,-0.1292522102594375,-0.6645273566246033
4.66064501953125,0.7177445844139904,0.2133032165277749,0.0065805474340915,-0.14203742146492,-0.0507402829825878,-0.5624443292617798
4.680696044921875,0.9786803436018526,0.142769398490712,-0.0001700958698987,-0.0952977985143661,0.079276330769062,-0.3983052670955658
4.7007470703125,0.8552867497757076,-0.0868755887679755,0.2860696889877319,-0.0345398150384426,0.1116863191127777,-0.2644011080265045
4.720798095703125,0.6942972925268113,-0.3403452498588711,0.7239969958722591,-0.0246721394360065,0.0370841808617115,-0.1731242686510086
4.74084912109375,0.3130297017036005,-0.4359077106904238,0.9961626626700162,-0.0748194605112075,-0.0007405448704957,-0.1386846154928207
4.76089990234375,0.2374739638512954,-0.4978685653671622,0.982462638619542,-0.1730804741382599,-0.0240072812885046,-0.0975371673703193
4.780949951171875,0.1365530447265133,-0.4435916893217712,0.596637859416008,-0.2249839603900909,-0.0242350772023201,-0.0057928189635276
4.801000732421875,-0.290300677620992,-0.4198923223696649,-0.0866354964017868,-0.1019181013107299,-0.0603346116840839,0.0763415917754173
4.8210517578125,-0.3420791609793901,-0.5246160678435117,0.0632902766495943,-0.0090213473886251,-0.1712543070316314,0.1433682590723037
4.84110302734375,-0.3394795364076271,-0.7443726982943714,0.42635903416574,-0.0658015459775924,-0.1435500681400299,0.1455427408218383
4.86115380859375,-0.3415951403221115,-0.8278843635872006,0.320555311435461,-0.074814036488533,0.0579018518328666,0.1361830681562423
4.881205078125,-0.1091715551955625,-1.0520234469059857,0.2791495343357324,0.0141372960060834,0.0904741212725639,0.1055797487497329
4.901256103515625,0.1926243299080058,-1.037513421646878,0.6367693787962198,0.0389467477798461,0.1010444462299346,0.1282933503389358
4.92130712890625,0.1964958010464906,-0.9256747296012936,0.7189636778801679,0.0335192307829856,0.1458615511655807,0.1091558709740638
4.941358154296875,0.0233771127277985,-0.983846859519556,1.0050123240798712,0.0214246269315481,0.2111167460680008,0.0525758415460586
4.9614091796875,0.2119316359136253,-1.0320387896280736,1.1846481757402418,-0.0442093759775161,0.2461139410734176,0.0449576936662197
4.981458984375,0.5496890977689997,-0.963582435452193,0.9264023132234812,-0.0544889122247695,0.155679389834404,0.1279692351818084
5.00151025390625,0.4686299036622047,-1.0375627406813204,0.3938642932742834,0.032939001917839,0.0105100460350513,0.2019339501857757
5.021561279296875,0.1248155894532799,-1.1168385950352997,0.4430477186381816,0.0034984741359949,0.0065158135257661,0.2387527525424957
5.041612060546875,-0.0502845550062134,-1.0747702623736113,-0.0564034397453069,-0.019968943670392,0.0418768525123596,0.2719340622425079
5.0616630859375,-0.0887163212638348,-1.0560489030297846,-0.7457154912054539,0.0482495166361331,0.0359445661306381,0.3259342014789581
5.08171435546875,-0.409895865544863,-1.2442661936178805,-0.9036018678724764,0.0903092324733734,0.1052242144942283,0.3301258087158203
5.10176513671875,-0.5202527946000919,-1.4294818912371992,-0.9953624522030352,0.1182039380073547,0.2918898463249206,0.3337275385856628
5.121816162109375,-0.4068679690910503,-1.4699483416602015,-0.8503595225065946,0.1806700825691223,0.4265626668930053,0.3498616516590118
5.1418671875,-0.6127991590134799,-1.4192317153796552,-0.2905488802284002,0.2177235186100006,0.5046831965446472,0.3246251940727234
5.161917236328125,-0.7606104241289198,-1.3547615812957283,0.6519365527898073,0.0904454886913299,0.4734121263027191,0.2821967303752899
5.18196826171875,-0.8425601738672703,-1.231385084734857,0.2023930423915386,-0.0410689190030097,0.2342825978994369,0.2541145980358124
5.202019287109375,-1.2860843509107829,-0.6532573530647904,-1.004020974954963,-0.0951986387372016,0.1117539629340171,0.1029817089438438
5.222070068359375,-0.8007175397202372,-0.096531598124653,-1.7883435524523257,-0.1877471953630447,0.1802839487791061,0.0607625842094421
5.242121337890625,-0.460736154737696,0.1966328714296221,-2.8570453816324477,-0.102029763162136,0.1971089839935302,0.0887913927435875
5.26217236328125,-0.3051491227879189,0.4086695020876824,-3.2648335708409544,0.1169764026999473,0.1726895570755005,0.1770498752593994
5.28222314453125,-0.2704874679198488,0.6139829619705677,-2.7852000426054,0.3390288352966308,0.2204158753156662,0.2669166922569275
5.302274169921875,-0.6051219754491001,0.7368995859347284,-1.3712322391033172,0.4398814439773559,0.2077434211969375,0.2859998345375061
5.322325439453125,-0.9498749587476252,0.992666344986856,-0.042494156858325,0.4190046489238739,0.2602465748786926,0.2277911156415939
5.342375244140625,-0.85202562908791,1.2414195720151069,0.9715496149390936,0.329444944858551,0.3267163932323456,0.1857355386018753
5.36242626953125,-0.724730643909052,1.280580200536549,1.158562132847309,0.306452989578247,0.2251776158809662,0.1400914043188095
5.3824775390625,-0.2969509292904287,1.3458888312712312,1.2793413063913583,0.2974074780941009,-0.003812379669398,0.1620074659585952
5.4025283203125,-0.3521886497246101,1.3493722894728184,1.2344839275330304,0.2273203581571579,-0.118689015507698,0.1718067079782486
5.422579345703125,-0.6296158537797629,1.3203757659606634,0.7393535549581051,0.1515417695045471,-0.0869496613740921,0.132212683558464
5.44263037109375,-1.0314394354954362,1.1941678453661502,0.2194979064494371,0.1467489451169967,-0.0957024842500686,0.0192282851785421
5.46268115234375,-1.140445096072182,0.92887571759969,0.0258498960494995,0.1231961250305175,-0.0966312512755394,-0.131789892911911
5.482732421875,-0.8712189898576587,0.8396082652591168,-0.1819359452962875,0.1243772953748703,-0.0011786059476435,-0.2451969981193542
5.502783447265625,-0.5381360591519624,0.8618563374243676,0.0794143129765987,0.1196541786193847,0.1662545949220657,-0.2911346554756164
5.5228330078125,-0.4578009050033986,0.7734782351389526,0.6062088208377361,0.1371712684631347,0.2131497859954834,-0.3313546478748321
5.54288427734375,-0.3350358548717573,0.6177567814208567,1.3124340131759642,0.0957421287894249,0.113808274269104,-0.3765157461166382
5.56293505859375,-0.1041610335571691,0.5672875540301203,1.5943576884001494,0.007421554531902,0.0433549210429191,-0.3940649330615997
5.582986083984375,0.1342252593660727,0.562155744099617,1.2855717252135277,-0.0390044674277305,0.0036134575493633,-0.3759757280349731
5.603037109375,0.1501124181972816,0.4622022087022662,1.1877829666346311,-0.0895340666174888,-0.0324944630265235,-0.3422488570213318
5.623088134765625,0.1059194580644369,0.3556597964338958,0.9670394440382718,-0.0857927948236465,-0.0862986370921135,-0.3168534636497497
5.64313916015625,0.2130203444657847,0.2921815959967672,0.5926257011651992,-0.0081037357449531,-0.1729584634304046,-0.2650476694107055
5.663190185546875,0.1888710417890921,0.1181808276139199,0.8287854040801524,-0.045333445072174,-0.2136772871017456,-0.2245268821716308
5.683240234375,-0.0066350906329229,-0.0807430773623287,0.6767477534413338,-0.0992678999900817,-0.2437993884086609,-0.2315260469913482
5.703291259765625,-0.1645780745916999,-0.3037168432287871,0.4903828857868909,-0.1416193842887878,-0.27576744556427,-0.275042325258255
5.72334228515625,-0.0071021966880187,-0.4448581290610134,0.1425771638542413,-0.1453835219144821,-0.2957428395748138,-0.2919014692306518
5.74339306640625,0.2645120833046734,-0.5686243555918336,-0.0771007753372192,-0.1048739105463028,-0.298859179019928,-0.2533551454544067
5.763444091796875,0.4062762502755969,-0.7439324071809649,-0.0899567497789859,-0.0432636588811874,-0.3414443433284759,-0.2110757231712341
5.783495361328125,0.4222332960052415,-0.9286921777263284,0.1778121433645486,-0.0488651879131794,-0.3814814686775207,-0.193103551864624
5.803546142578125,0.2576035642915405,-1.0268298958733677,-0.1091296522825956,-0.0260553620755672,-0.3848794996738434,-0.2115412801504135
5.82359716796875,0.3566842806434259,-1.0828303077757355,-0.2671568987250328,0.0035127240698784,-0.3836473226547241,-0.2008993625640869
5.8436474609375,0.5011375771004707,-1.0405722977608445,-0.2921545618593693,0.0386524461209774,-0.4013495743274688,-0.1442631036043167
5.8636982421875,0.4029502476580441,-1.075805085314065,-0.3317220176160335,0.0553952157497406,-0.4230270683765411,-0.1101680025458335
5.883748291015625,0.1892424689173698,-1.126630724927038,-0.2782324194908142,0.0265749264508485,-0.4337264597415924,-0.1250357925891876
5.90379931640625,0.041789588785544,-1.0657380109384655,-0.6630839697480201,0.049852967262268,-0.4425760209560394,-0.1526214778423309
5.923850341796875,0.0124498413262888,-1.035972841141373,-0.6680798783391714,0.0312782973051071,-0.3629344403743744,-0.1987424492835998
5.9439013671875,-0.0952955900562927,-1.0809165831089018,-0.2184755776643752,-0.1130132526159286,-0.2644101977348327,-0.303905189037323
5.9639521484375,-0.1781463072223588,-0.9566573123641312,-0.2730576472014188,-0.3057895600795746,-0.2102072089910507,-0.4375093877315521
5.98400341796875,0.2808074941432103,-0.7575894688725471,-1.2758370976626872,-0.3138624131679535,-0.3019080460071563,-0.5009490251541138
6.004053466796875,0.8541963972557336,-0.4700103251699358,-1.7118612012743948,-0.3057403564453125,-0.3452152907848358,-0.4577645361423492
6.024104248046875,1.2857409443005918,-0.2381560643639415,-2.077787686309218,-0.2461794167757034,-0.3557490408420563,-0.3346691131591797
6.044155517578125,1.5478852755606174,-0.0068411711316555,-2.072530496433377,-0.0739777162671089,-0.4220576882362366,-0.1516173779964447
6.06420654296875,1.770032235214114,0.0779791656069457,-2.000966896957159,0.1594531685113906,-0.5003150105476379,0.0401815772056579
6.08425732421875,1.4700646615162491,0.2922408519033342,-1.6719921322226523,0.3269512951374054,-0.2729544043540954,0.1749548763036728
6.104308349609375,1.008348409700021,0.5674876797121018,-0.5882733511745929,0.4321667850017547,0.0009906087070703,0.2524487674236297
6.124359375,0.4912012894976884,0.6425858099900186,0.9688105453640222,0.390596330165863,0.0862017646431922,0.2412070780992508
6.144410400390625,0.1508309051975608,0.834034410649538,1.6663520805090666,0.3184222280979156,0.0318638198077678,0.2338554710149765
6.16446044921875,-0.0977525912869721,1.0005711267620323,1.719421991917491,0.2546424567699432,-0.0472272709012031,0.2390683442354202
6.184511474609375,-0.4306209293939173,0.9091070411600172,1.6675626253426077,0.1241161674261093,-0.0259777083992958,0.1549822092056274
6.2045625,-0.5882036469392478,0.7567623703986406,1.445804957267642,-0.015987504273653,0.0542533583939075,0.0150622129440307
6.224613525390625,-0.2178110493410378,0.7547989613711833,0.7470984699964522,-0.072951428592205,0.0851940959692001,-0.0276548508554697
6.24466455078125,0.3225416629470884,0.77562810664922,-0.0500461796730756,-0.0105927735567092,0.0857142210006713,0.0631997138261795
6.26471533203125,0.3467091588675975,0.6395234998099506,0.006622633010149,0.0253692138940095,0.1414090692996978,0.1531583815813064
6.2847666015625,0.1876319649808108,0.2833588225938379,0.4437748638689517,-0.002398467157036,0.169101282954216,0.1774873584508896
6.304817626953125,0.0390196126155555,0.1261065060466528,0.4859942954391241,0.0159470103681087,0.2235496491193771,0.1697052866220474
6.3248671875,0.0591542728234082,0.0828016173273324,0.7630594247162341,-0.0170932747423648,0.3237867951393127,0.1858041733503341
6.34491845703125,0.0373383815303444,0.0101942078866064,1.1227414624035357,-0.0796384289860725,0.2915098965167999,0.2105351239442825
6.36496923828125,-0.1408787624385208,-0.1075574345298111,1.1675339593321084,-0.1106401905417442,0.1283549964427948,0.1748009771108627
6.385020263671875,-0.2463215429019182,-0.1582296371467411,1.2118699446648358,-0.2063413709402084,0.0346854031085968,0.1881987899541854
6.4050712890625,-0.2937204960018396,-0.2733919937223196,0.9399521151483058,-0.2855622768402099,-0.0395258627831935,0.1338945925235748
6.4251220703125,-0.1593082261636853,-0.2941413517624139,0.4040916727781296,-0.2556259334087372,-0.0381350964307785,0.154918685555458
6.44517333984375,-0.1479779999844729,-0.2647596283249557,-0.0424602545887231,-0.0838908702135086,0.0260853618383407,0.2355668544769287
6.465223388671875,-0.1419981218572706,-0.4215223347242921,0.1014203930795192,0.027231091633439,0.0488707795739173,0.2679961919784546
6.485274169921875,-0.3051621466662734,-0.7057557481955736,0.5214063850820064,0.0337683893740177,0.0126028433442115,0.228053018450737
6.505325439453125,-0.1122907466620206,-0.6902991628013551,0.4814063831269741,0.0578489042818546,-0.0206421874463558,0.2370049953460693
6.52537646484375,-0.2007761817794293,-0.7544403571918606,0.593383241534233,0.0147308586165308,0.0767178311944007,0.2308772355318069
6.54542724609375,-0.2035667623460292,-0.7128212296023965,0.4779162029236555,0.0450344085693359,0.1926550567150116,0.2752034962177276
6.565478271484375,-0.1813151099842041,-0.7542708458438515,0.4166752600193023,0.1364572346210479,0.2344929873943328,0.3289806842803955
6.585529541015625,-0.4269298928562551,-0.8830003938704729,0.5678536634802818,0.1601095646619796,0.2343857735395431,0.2844161093235016
6.605580322265625,-0.2656145646538585,-0.9478851001046598,0.840960995042324,0.0749898478388786,0.1151489913463592,0.2517325580120086
6.62563037109375,-0.2069344852134585,-0.9174417387850582,0.5314841269820928,-0.0074179368093609,0.036886777728796,0.2591190636157989
6.645681640625,-0.3221786017883569,-0.8634875918880105,-0.309452902662754,0.0235044509172439,-0.0771373137831687,0.2319594919681549
6.665732421875,-0.4289124449755996,-0.9813391875475644,-0.6505331157326698,0.0144061613827943,-0.1239050030708313,0.1738968044519424
6.685783447265625,-0.4547341378439217,-0.939252442446351,-0.8296966737061738,-0.0347896218299865,-0.0205251835286617,0.1481049060821533
6.70583447265625,-0.5779542747993022,-0.8757961615800857,-1.2034089903116223,0.008813589811325,0.1841272115707397,0.0874375030398368
6.72588525390625,-0.6203052968598902,-0.8756028309650719,-0.7656599626034498,-0.0143223386257886,0.4198853671550751,-0.0050826082006096
6.7459365234375,-0.234897427894175,-0.7858198303177952,-0.119384504315257,-0.1596737802028656,0.3768290877342224,-0.0062769972719252
6.765986083984375,-0.011946677577123,-0.6555255171924829,-0.6229594646304846,-0.1752650141716003,0.148327350616455,0.0340018384158611
6.786037109375,-0.113983887380734,-0.6059692399282008,-1.2848352276325226,-0.1399941146373748,0.0199950225651264,0.007231670897454
6.80608837890625,-0.1262013447232544,-0.6339851549051702,-1.4281635021150112,-0.1796083450317382,0.1305581480264663,-0.00698983669281
6.82613916015625,-0.1505233736183494,-0.4982756848633289,-1.709531881543994,-0.137822076678276,0.3176965117454529,0.017195438966155
6.846190185546875,0.2527296563785523,-0.452848543293029,-1.7515683577626942,-0.0056623807176947,0.2006762474775314,0.048565037548542
6.8662412109375,0.2629549169905483,-0.2237345211058855,-1.519839915293455,0.1199235320091247,0.0993352755904197,0.1178646981716156
6.88629345703125,-0.193521315280348,0.0482222521815449,-1.3090578147411345,0.2231367081403732,0.1297804713249206,0.0805111974477768
6.906344482421875,-0.232272833277937,0.4398791716046631,-0.6203788004875183,0.1711862981319427,0.3522810339927673,0.019959844648838
6.92639453125,0.2884420441422611,0.7493516557507216,0.0043903439134359,0.1006282791495323,0.4707987010478973,0.0607408359646797
6.946445556640625,0.8331699027746915,1.0101260138317942,0.3744944068938493,0.135986179113388,0.3563425242900848,0.1807229369878769
6.966496337890625,1.1049257466625422,1.131066515417397,0.6486626456856727,0.2208576053380966,0.1291184723377227,0.3148848116397857
6.986547607421875,0.9636186027441174,1.243605537752062,0.969016297069192,0.221971645951271,0.0351886413991451,0.4202969074249267
7.0065986328125,0.7066976321555674,1.2004159459754824,1.0407178437113762,0.153843879699707,0.024929292500019,0.4882449507713318
7.0266494140625,0.253236930047255,0.9810494108207524,0.9095593149721622,0.0579660981893539,0.0192678775638341,0.4522373974323272
7.046700439453125,0.4388156705589964,0.7469863879241049,0.4900111298650503,-0.0032096747308969,0.0168780907988548,0.4514832198619842
7.06675048828125,0.3866983106350526,0.6140037124976515,-0.1080313356518745,0.0619714856147766,-0.0441633909940719,0.463655412197113
7.086801513671875,0.1929909347306936,0.576081685860455,-0.2268617132157087,0.1784049123525619,0.0047891959547996,0.4666978418827057
7.1068525390625,0.1566724342999979,0.4493099939033388,0.417272641390562,0.1439830064773559,0.1517248153686523,0.4397993385791778
7.126903564453125,0.0917225812745746,0.2974222731292247,0.9160632900387048,0.0637433975934982,0.2460338771343231,0.41242116689682
7.14695458984375,-0.1023965446352958,0.1505995806597173,1.2716478292793034,0.0353401154279708,0.1567382514476776,0.321448802947998
7.167005615234375,-0.0630692725763656,0.1413371006652712,1.356262048986554,0.0117464624345302,0.0192100778222084,0.2650863528251648
7.187056396484375,0.0723145274413749,0.1712421173244714,0.9732803842544556,0.0554325170814991,-0.1095014438033104,0.2398640066385269
7.2071064453125,-0.133405394350551,0.0519245407655835,0.9997568877696992,0.0449200719594955,-0.1435761600732803,0.1772297769784927
7.227157470703125,-0.4275593498662114,-0.0241959913626313,0.8025906401157379,0.015658214688301,-0.0797964408993721,0.0311648473143577
7.247208251953125,-0.1687044155403971,-0.0742341338597238,0.9007838878422976,-0.047120377421379,-0.0629615783691406,-0.079913854598999
7.267259521484375,0.1416713741209357,-0.0586091330960392,0.7979951290190219,-0.0925177410244941,-0.0724171921610832,-0.1019055992364883
7.287310546875,0.3729316876217722,-0.0453548069864511,0.4703402147114277,-0.0378039255738258,-0.0861529409885406,-0.0716694295406341
7.307361328125,0.4794692045193165,-0.0687656393207609,0.419658075222373,0.0784479230642318,-0.122902512550354,-0.0275907088071107
7.327411376953125,0.5086417421855032,-0.292545753134042,0.9156529556721448,0.08334381878376,-0.1854503005743026,0.0033717630431056
7.347462646484375,0.2301527358514256,-0.4812202129051089,0.9782418060541151,0.0506952293217182,-0.2722858190536499,-0.0285082943737506
7.367513427734375,0.1155763259376399,-0.3956697352610528,0.4672814116626977,0.0179255474358797,-0.2845983505249023,-0.0749543234705925
7.387564453125,0.2378844808809459,-0.2817078405164182,-0.0475081856280565,-0.0155912544578313,-0.3668453693389892,-0.0621279366314411
7.407615478515625,0.2011716839030385,-0.1909665162310004,-0.893567380592227,0.0462465770542621,-0.4819094240665436,-0.0577744431793689
7.42766650390625,-0.018638284170255,-0.1632769836641848,-1.2540268323928117,0.0665449500083923,-0.412254124879837,-0.0998668149113655
7.447717529296875,0.1401495348485186,-0.2187809903517365,-1.1680343100696802,0.0115885268896818,-0.246400311589241,-0.127422884106636
7.467767333984375,0.231846223630011,-0.1671042868673801,-1.0430109230846163,0.0090311486274003,-0.0960220023989677,-0.1304434686899185
7.487818603515625,0.0485295645650476,-0.1938921944193541,-0.4282844492703676,-0.0714651942253112,-0.1195303052663803,-0.1870048493146896
7.50786962890625,-0.0119742962364107,-0.0725813982166349,-0.3462362806588411,-0.2085362374782562,-0.285669595003128,-0.2396115958690643
7.52792041015625,-0.1571248177099972,-0.0110080084875226,-1.3383049520134924,-0.204307734966278,-0.392934501171112,-0.3256412446498871
7.547971435546875,0.0125035077422857,0.0790530784487724,-1.660506277090311,-0.2151039540767669,-0.3587674498558044,-0.3521558940410614
7.5680224609375,0.0561597671825438,0.1729968520373105,-1.5860837810516355,-0.2329296171665191,-0.2361144870519638,-0.3770990073680877
7.588073486328125,0.3364592022057622,0.2739437823861837,-1.4768027375996111,-0.179430142045021,-0.0970281809568405,-0.3623770475387573
7.60812353515625,0.5555878369513899,0.2359966213077306,-1.0975368785202502,-0.0997488126158714,0.0303494036197662,-0.320694625377655
7.628174560546875,0.5309584956727922,0.2288485031187534,-0.7074439204782247,0.0001526665873825,0.110367514193058,-0.2621561586856842
7.6482255859375,0.3541202388416976,0.3620411680340766,-0.2431213586211204,0.1454390734434127,0.1396415829658508,-0.1941258013248443
7.668276611328125,-0.0154949446432292,0.4261252254098653,0.6564724426537751,0.1961023658514022,0.1219779551029205,-0.1699004918336868
7.68832763671875,-0.603678133316338,0.4894613870278,1.1098001477658748,0.1676625311374664,0.0792785212397575,-0.2387608289718628
7.70837841796875,-0.7457799347437918,0.4554276000007987,1.1632499984025957,0.1014690175652504,-0.0322296880185604,-0.3454179167747497
7.7284296875,-0.7895036333970725,0.6461888029180467,0.9662105919986964,-0.0058274436742067,0.0153402704745531,-0.4174134135246277
7.748479248046875,-0.7107778872065246,0.6751802118636667,0.6769733788907527,-0.0817103832960128,0.0737045630812645,-0.4836117625236511
7.7685302734375,-0.3315777137745171,0.6693269557908177,0.5102355872482061,-0.1429135203361511,0.0848016291856765,-0.5044651031494141
7.78858154296875,0.2600176944948733,0.7413366915993392,0.0451052161395549,-0.1023387536406517,0.0827957168221473,-0.3919536769390106
7.808632568359375,0.3960038260536268,0.6348163450323044,-0.0895674582004547,-0.0167771968990564,0.1046759635210037,-0.2475874871015548
7.828683349609375,0.2120940964663401,0.4084995523482561,0.232135269704461,0.0358973406255245,0.150821104645729,-0.156282439827919
7.848734375,-0.0055913537336513,0.1718681402683258,0.7318675831168889,0.0306123588234186,0.1851382404565811,-0.1119744777679443
7.86878564453125,-0.1309184363730251,0.0201258193142712,1.1902443883121012,-0.0286525152623653,0.1893797367811203,-0.0827923715114593
7.8888349609375,-0.3064216452080756,-0.0604132599085569,1.1861001281142234,-0.0556229278445243,0.1100567951798439,-0.0575770139694213
7.908885986328125,-0.538803071693331,-0.1210113748647272,0.9905208573907612,-0.0652218535542488,0.0375179201364517,-0.0648856833577156
7.92893701171875,-0.4964324316168204,-0.0704059538736939,0.7871732907533645,-0.1065867096185684,0.0560828633606433,-0.0130383521318435
7.948988037109375,-0.4451076468426734,-0.1025299617566168,0.5453665218621492,-0.1193106919527053,0.0375353656709194,0.0549244098365306
7.9690390625,-0.6872443052753806,-0.3083312051564454,0.2159516121447086,-0.0627261996269226,-0.009727519005537,0.070382110774517
7.98908984375,-0.7008614733479916,-0.553039540708065,0.4528951589137315,-0.0738637819886207,0.0103271035477519,0.0711861476302146
8.00914013671875,-0.5214261126957833,-0.590729512155056,0.3118909434646368,-0.0325698144733905,0.0406448617577552,0.0981223136186599
8.02919091796875,-0.4510738617707043,-0.6675466482453047,0.4434750041395425,0.020944433286786,0.0651831701397895,0.1433213502168655
8.049241943359375,-0.5731992257593199,-0.862807792930305,0.6999018345355987,0.0500464625656604,0.065981775522232,0.1135279685258865
8.069293212890624,-0.5856083697490394,-0.9523302429452538,1.1094763226389883,-0.0041629592888057,0.1182678192853927,0.0537439659237861
8.08934423828125,-0.5309276621431112,-0.9801916249476372,1.192812777495384,-0.0681983008980751,0.149248868227005,-0.0138258654624223
8.10939501953125,-0.304599179021269,-0.9429055581264196,0.8678793971061706,-0.0730452537536621,0.1206124201416969,-0.0418138243257999
8.129445068359376,0.0453255078267306,-0.8734070744864643,0.4703951597690582,-0.0570780597627162,0.0753011479973793,0.0054040481336414
8.14949609375,0.016797295946069,-0.9209832107841968,0.0908370397448539,-0.0515913777053356,0.0845490247011184,0.0289349481463432
8.169547119140624,-0.0742155387571081,-0.9513932543560862,0.0030856910556554,-0.0895444974303245,0.0939302667975425,0.0264199618250131
8.18959814453125,-0.1018246995640918,-0.9025655105620622,-0.2647510066270828,-0.1062836349010467,0.1014640256762504,0.0321370996534824
8.20964892578125,-0.2192058281676843,-0.916463979794085,-0.8366741115033626,-0.0506299845874309,0.1087298989295959,0.0376743897795677
8.2297001953125,-0.1321082489457912,-0.905193082586676,-0.8472937051951884,-0.004718201700598,0.1356606930494308,0.0621528513729572
8.249751220703125,-0.0503161374545656,-0.8985247107386588,-0.7096575048744678,0.0188181735575199,0.2150755673646927,0.0921958312392234
8.269801025390626,-0.3101535617453977,-0.9110371324397624,-0.3780500535488128,0.0150140589103102,0.3808229863643646,0.0942315831780433
8.289852294921875,-0.4138893190952017,-0.973658277656138,0.1947626936435699,-0.0471295714378356,0.4172662794589996,0.075864665210247
8.3099033203125,-0.3170122320011257,-0.9240475667908788,0.4455453806728124,-0.150993525981903,0.2026148736476898,0.12300306558609
8.3299541015625,-0.7723084607072174,-0.8529979081861674,-0.3514882098376751,-0.1721630245447158,-0.0163670666515827,0.0779058784246444
8.350005126953125,-1.1316321864761412,-0.6748625242166221,-0.9596101708203554,-0.256566047668457,0.0290031768381595,-0.0202699657529592
8.37005615234375,-1.1828483597766608,-0.5756806307788938,-1.8865835619300604,-0.2866694927215576,0.142969861626625,-0.1302519589662552
8.39010595703125,-0.5448674862988293,-0.3233620394192635,-2.771186130300164,-0.1347519606351852,0.179972231388092,-0.1078434884548187
8.410156982421874,-0.2505324020626023,-0.0891415609385818,-2.6106793420016765,0.0398056730628013,0.1979342103004455,-0.0490089058876037
8.4302080078125,-0.4164230753565207,0.0672045274838805,-1.585133348459005,0.115954615175724,0.2735002338886261,-0.0602001845836639
8.450259033203125,-0.3027354127096943,0.4065728220693766,-0.6433505107522011,0.1152360811829567,0.365578830242157,-0.0160462707281112
8.47031005859375,-0.1348721059022471,0.6610622546620667,-0.345059638094902,0.219591274857521,0.2829590737819671,0.0059175668284296
8.49036083984375,-0.1814882745940238,0.8460540073323994,0.4565723861217498,0.2384223937988281,0.2141181081533432,0.0590221583843231
8.510411865234374,-0.0814863700103014,0.9357344974532724,0.8356149578392505,0.2306191027164459,0.0337224528193473,0.0794917717576026
8.530462158203125,-0.1096108599282801,1.0588884373046457,0.6380757852196693,0.2586600482463836,-0.0955497846007347,0.0913745313882827
8.550512939453125,-0.0499221514346078,1.1360521948754787,0.771700411811471,0.1851542890071869,-0.1393612474203109,0.1096859648823738
8.57056396484375,-0.3403321711815893,1.2469454958297312,0.3721294313281774,0.1190639436244964,-0.2027333974838256,0.0767823606729507
8.590615234375,-0.6292108531754463,1.233954204570502,-0.1334913556009531,0.0714529976248741,-0.2582434713840484,-0.0120167192071676
8.610666015625,-0.705889969034493,1.2180113700293005,-0.9044973554074764,0.1122884526848793,-0.1824767887592315,-0.1124795153737068
8.630717041015625,-0.3345446738213301,1.1593960994534194,-0.7157377015709877,0.1170088425278663,0.0309248082339763,-0.1548342108726501
8.650767333984374,0.0316008790579624,1.112614036142826,0.1350035137295722,0.0957390442490577,0.2302948981523513,-0.1240224689245224
8.670818115234376,0.1766508810328319,0.9415604271277784,1.174952126634121,0.0756210908293724,0.1993076354265213,-0.0626305937767028
8.690869140625,0.3392807624325156,0.8364480476625263,1.7493705554574728,0.0690827593207359,0.0007225461304187,0.0169342868030071
8.710920166015624,0.143775488527026,0.7614185256414115,1.7238514987975355,0.081826351583004,-0.1457819789648056,0.0450153462588787
8.730970947265625,-0.0847280188126489,0.4986246444314718,1.7927268821030855,-0.0161593165248632,-0.1931594163179397,-0.0012443275190889
8.751022216796875,-0.040129181292653,0.3568665418751537,1.4795342083901166,-0.1295467019081115,-0.1663805991411209,-0.0380344353616237
8.771072021484375,-0.0032892325374297,0.3017921587765216,0.912796981719136,-0.1496300399303436,-0.1516899317502975,-0.0421384647488594
8.791123046875,0.1392058242576196,0.1660243826761841,0.5260340448826551,-0.112137034535408,-0.2368019521236419,-0.01166951097548
8.81117431640625,0.055578295766469,-0.0256543734773993,0.2066951234996318,-0.090039886534214,-0.2684139609336853,-0.0094365607947111
8.83122509765625,0.1019513124852906,-0.176535839818418,-0.0985755250424146,-0.0434433370828628,-0.2899583280086517,-0.0130549576133489
8.851276123046874,0.1242620198242831,-0.2406181436285376,-0.1212175649613142,-0.01667364500463,-0.2278981357812881,-0.0354203432798385
8.8713271484375,-0.020237979018432,-0.3552545766338705,-0.0928378581732511,-0.0109693212434649,-0.081795834004879,-0.0437902398407459
8.891376220703124,-0.0860979645921383,-0.5585927909210324,0.1781190173566341,0.0020524717401713,-0.0965681225061416,-0.0788209289312362
8.91142724609375,0.0672791453563608,-0.5872796639621257,0.3834644798129796,0.0398609675467014,-0.2217130959033966,-0.1050928309559822
8.931478515625,-0.0553933676536195,-0.5780905414648354,0.4107201510071754,0.0061072818934917,-0.1988765448331833,-0.152311772108078
8.951529296875,-0.135416898569744,-0.7002490405380726,0.4335802175909281,-0.1147911101579666,-0.1171080917119979,-0.1879244148731231
8.971580322265625,-0.0350473114510998,-0.6128237089328468,-0.2907709985464811,-0.0675609707832336,-0.1039643585681915,-0.1829475909471511
8.99163134765625,-0.0159664894114248,-0.621641952291131,-0.3127881845653057,-0.0387850143015384,-0.1254439502954483,-0.2051774561405182
9.011682373046876,0.1247957157090306,-0.697587858504802,-0.1780856996089219,-0.0928458496928215,-0.1665552407503128,-0.2113693952560424
9.031732421875,0.1025864777168259,-0.5860621048659086,-0.5764782839626074,-0.1024433001875877,-0.1408649086952209,-0.2041636854410171
9.051783203125,0.0852438593802973,-0.6090897831015288,-0.8852028723508119,-0.0454725287854671,-0.1519465446472168,-0.2017510086297989
9.071834228515623,-0.0876040857056155,-0.6018871582463383,-0.635237931445241,-0.011042520403862,-0.1441747397184372,-0.1998751759529113
9.091885498046874,-0.118022824040614,-0.5937837851591408,-0.5806944403529167,0.0605506300926208,-0.0980188846588134,-0.187087133526802
9.111936279296875,-0.2317803918521851,-0.6296181918673217,-0.2006096661061048,0.0829641297459602,-0.0733976140618324,-0.1992328017950058
9.1319873046875,-0.3333922523831948,-0.6300586291112006,0.0955915407955646,0.0444096997380256,-0.2413200139999389,-0.2321504801511764
9.15203759765625,-0.5787205829966813,-0.4145147209845483,-0.1574859791725874,0.0138682099059224,-0.3678202927112579,-0.2963549494743347
9.17208837890625,-0.6564306493386626,-0.2813688178203999,-0.3035311113983392,-0.0103416312485933,-0.380686342716217,-0.3680740296840668
9.192139404296874,-0.8195276002608239,-0.1473227509461343,-0.1095259581238031,-0.1283233016729354,-0.1979308575391769,-0.4457027614116668
9.2121904296875,-0.5670705137459561,0.0605878858231008,-0.323990546581149,-0.2307437807321548,0.1005515605211258,-0.5050715208053589
9.232241455078125,-0.1477953368939459,-0.0361345586985349,-1.2188368610680105,-0.1779931783676147,0.2827571928501129,-0.5990611910820007
9.25229248046875,0.4691715727908536,0.1189637946851551,-1.4556313547551631,0.0569252520799636,0.031765628606081,-0.6164100170135498
9.27234228515625,0.7493661957327276,0.0134836048208177,-0.6754746647655964,0.0517214722931385,-0.2816998362541199,-0.5820475220680237
9.2923935546875,0.0719254550585523,0.3696585111699998,-0.9467769927322864,0.198394164443016,-0.1830425560474395,-0.5791833996772766
9.312444580078123,-0.1130837236706167,0.5585990745313465,-0.4746446339070796,0.279742419719696,0.0023356932215392,-0.5586056709289551
9.33249560546875,-0.4659235673129558,0.5141390244275331,0.4649322181880473,0.1708952188491821,-0.0259771309792995,-0.6038950681686401
9.35254638671875,-0.8536522804416715,0.4741314236879348,0.5624398217380047,0.0652034804224968,-0.2244597822427749,-0.8044643998146057
