timestamp,acc_x,acc_y,acc_z,gyro_x,gyro_y,gyro_z
0.105655029296875,-0.0244465685902163,-0.2145201180368662,0.587851910892129,-0.1140336096286773,-0.0630247145891189,-0.0422056578099727
0.125705078125,0.2170909183729439,-0.37512262179479,0.5973690963000059,-0.1393156796693802,-0.2224210798740387,-0.0584989376366138
0.145755126953125,0.1530825931144878,-0.4372979229398071,0.4260352090388536,-0.1706358194351196,-0.2987982332706451,-0.0666631162166595
0.16580517578125,0.1686653073727153,-0.6159632490675896,0.0895960997730493,-0.2333265244960785,-0.2611580193042755,-0.0927425324916839
0.185856201171875,0.1110254029013216,-0.6597907003562897,-0.5364549011319876,-0.1847316622734069,-0.188297301530838,-0.1423943638801574
0.205906005859375,0.1742772107040509,-0.7405494136791676,-0.7234381929457188,-0.1094172596931457,-0.1263498067855835,-0.1826652735471725
0.2259560546875,0.3025553982339799,-0.8374541559651494,-0.3502273961216211,-0.1077691316604614,-0.1451754420995712,-0.1791132986545562
0.246005859375,0.3545404735477641,-0.800393422332406,-0.3332873672366142,-0.0913550108671188,-0.2453359216451645,-0.1752472668886184
0.26605712890625,0.0894149710524827,-0.6371910382743925,-0.707130032223463,0.0047001321800053,-0.2175665646791458,-0.2496736943721771
0.286107177734375,0.3272231352942064,-0.5216537109065801,-0.4951099143087863,-0.0395411327481269,-0.0215884987264871,-0.2925072014331817
0.3061572265625,0.5376874386016279,-0.3616779607448727,-0.5832336034417152,-0.0611084289848804,0.0763442888855934,-0.3025145530700683
0.326207275390625,0.7016029393650591,-0.137973542516306,-0.6655687723010778,-0.0045315194875001,0.0402906872332096,-0.2684148550033569
0.346258056640625,0.5945163737500087,0.0026570903800427,-0.3900473653346299,0.00141117349267,-0.0066369869746267,-0.2479909360408783
0.36630810546875,0.3417385308481753,0.1863334496028721,-0.3799070795923471,0.0220824107527732,-0.0106651857495307,-0.2730286419391632
0.38635791015625,0.4146801406793296,0.4230116234339773,-0.4611702353060245,0.0854092091321945,0.0202943477779626,-0.2758375406265259
0.406408203125,0.6314994025040418,0.6371668536812066,0.0193470900267362,0.06296918541193,0.1835968792438507,-0.1805217266082763
0.426458984375,0.6823419932518154,0.5553508863903581,0.4751636893451214,0.0364175587892532,0.2782474458217621,-0.0729803740978241
0.44650927734375,0.4206672887975349,0.3504606934208423,0.6138035137504338,0.0785849764943122,0.1763986200094223,-0.058345828205347
0.46655908203125,0.4903008700592443,0.3261008897986263,1.050358363237977,0.0073211910203099,0.0829055607318878,0.0095919203013181
0.486610107421875,0.4247952919803559,0.1822857085820287,0.7571376334518194,-0.0518792904913425,-0.0489617325365543,0.0699568316340446
0.506659912109375,0.2678548178613186,-0.0373315133981406,0.2246528049945831,-0.0273379255086183,-0.0934696942567825,0.1035810485482215
0.5267099609375,0.376247607236728,-0.276983661538735,0.1352940211087465,-0.0158389434218406,-0.0188699699938297,0.185933917760849
0.546760009765625,0.3531838347744196,-0.6562720977760851,0.442189055982232,-0.0835714787244796,0.0585341416299343,0.2891607880592346
0.56681103515625,0.20157736036079,-1.0313103292230517,0.0436427423715591,-0.0319194309413433,-0.0398198999464511,0.373249351978302
0.586861083984375,-0.1497169708725996,-1.2880493673734366,-0.2342816340833902,0.0301169008016586,-0.1274176388978958,0.4030337035655975
0.606910888671875,-0.5182071506492794,-1.7250103134438397,-0.1808341215342283,-0.0477063506841659,-0.1078547239303588,0.3570809364318847
0.626961181640625,-0.5129593131236732,-1.9069167403846976,-0.5987181728214025,-0.0791093707084655,-0.0296575240790843,0.2980555295944214
0.647011962890625,-0.331132308094576,-1.7723238532826304,-0.7961836956828832,0.016978520900011,-0.0217703226953744,0.2678255140781402
0.667062255859375,-0.299034603696689,-1.3661986288502812,-0.4280979867875575,0.1509249657392501,-0.0053971973247826,0.2474125325679779
0.687112060546875,-0.1385021329676732,-0.9343173241317272,0.529051931399107,0.1841273009777069,0.0657467395067215,0.2524050176143646
0.7071630859375,-0.1588808310644701,-0.5672228182308375,1.3383669113337993,0.1493439674377441,0.1197401732206344,0.246003657579422
0.727212890625,-0.1661864779027178,-0.4288268855839967,1.828763241124153,0.0482427254319191,0.1207275316119194,0.207667663693428
0.747262939453125,-0.0151974595339968,-0.2788969478141516,1.9781898324817415,-0.0434302389621734,0.0962211564183235,0.2296416610479354
0.76731298828125,-0.0563446039638482,-0.3001382540896535,1.9348405200988048,-0.072050429880619,-0.0075911795720458,0.2676231861114502
0.787364013671875,-0.3551766525594517,-0.5081589271046221,1.6953887899011373,-0.083662174642086,-0.0939206928014755,0.2428915053606033
0.807414306640625,-0.4670178288230672,-0.5904478456694633,1.3474801921159028,-0.094737634062767,-0.0488552637398242,0.209424614906311
0.827464111328125,-0.4984093942455947,-0.7800263416081666,0.8780378030270337,-0.1272076219320297,0.018622301518917,0.1632917076349258
0.84751513671875,-0.3428664388995617,-1.1482105424419045,0.3925485345005989,-0.1812320351600647,0.0701122730970382,0.1119691431522369
0.86756494140625,-0.3657035995317623,-1.3936226423487066,-0.239617734414339,-0.1884700506925583,0.2066477537155151,0.0507953464984893
0.887614990234375,-0.2964978334943763,-1.5716295776329934,-0.5229004230320453,-0.1422287076711654,0.2943676114082336,0.0164971966296434
0.9076650390625,-0.0761443513952195,-1.6264045393936335,-0.5598761087298393,-0.0875590816140174,0.1985209733247757,-0.0018303678371012
0.927716064453125,0.1801219181442633,-1.593011826749146,-0.2346832006216049,-0.1174700483679771,0.0959232151508331,0.0263458453118801
0.94776611328125,0.1997929063631221,-1.5784531400427222,-0.7530179231733083,-0.0602502264082431,0.0778925642371177,0.0609139762818813
0.96781591796875,0.2690147284861653,-1.493437792188674,-1.049804821008444,0.0308340601623058,0.1126782447099685,0.1392211019992828
0.98786669921875,0.2393239025669172,-1.4230829839803278,-0.8237100005120038,-0.0039186612702906,0.0888234823942184,0.202288880944252
1.0079169921875,-0.0945978627162519,-1.2143052820529787,-1.0917997961729764,-0.0332427993416786,-0.0795994773507118,0.1965801864862442
1.027966796875,-0.405987934853509,-0.705659886605665,-1.5925076766192912,-0.0255744364112615,-0.1325879693031311,0.1368435174226761
1.04801806640625,-0.245329919782374,-0.4963626908488571,-1.628167019021511,-0.0566212274134159,0.0356183052062988,0.1261772960424423
1.068068115234375,0.0035600488354451,-0.5613781838558614,-1.750613833516836,0.0151388719677925,0.2976441979408264,0.1365285217761993
1.0881181640625,0.4656492073509842,-0.723557508476451,-0.8755261124670505,0.0122360736131668,0.3519459366798401,0.2254277616739273
1.108169189453125,0.3466315635867417,-1.00890955071412,-0.3894482303977012,-0.0222591497004032,0.1756239235401153,0.3537037372589111
1.12821875,-0.1826262839143164,-1.0432378637082873,-0.7401327226370572,-0.0094976685941219,-0.0664450824260711,0.2686444520950317
1.14826904296875,-0.2655803153243847,-0.0648906245183199,-1.0497674116075038,0.0070671336725354,0.030452711507678,0.1735177189111709
1.16831982421875,0.0402377014347352,0.6270383314419538,-0.8861153110206127,-0.023003589361906,0.2700017988681793,0.1725013554096222
1.1883701171875,0.2858912271482869,0.9661479750912636,-0.706551940074563,0.0246648713946342,0.3353923857212066,0.2251259237527847
1.208419921875,0.4124766758183017,1.1666419789284468,-0.4530401203423738,0.1699990928173065,0.2254292368888855,0.305208683013916
1.228470947265625,0.4062254699364304,1.1892600534498692,0.2840828990846872,0.1961238384246826,0.1276677995920181,0.3436271846294403
1.248521240234375,0.4314793728541582,1.136338537536189,1.148409572145343,0.0207787211984395,0.0712739005684852,0.3963910341262817
1.26857080078125,0.3546544918488711,1.089580512688309,0.8460638711392879,-0.0720214918255806,-0.0687315315008163,0.3968998789787292
1.2886220703125,0.1544619734426029,0.9002886516712605,0.4075514578431845,-0.0705592185258865,-0.1931734532117843,0.3245826065540313
1.308671875,0.2774210117763839,0.8754419413149356,0.0838905816078185,-0.0808194950222969,-0.1551834642887115,0.2780014276504516
1.32872216796875,0.5698407821768895,0.9081879535537212,-0.283050048905611,-0.0468692816793918,0.0313794650137424,0.3114364743232727
1.34877294921875,0.7088180583756417,0.7375622876271605,0.0795399851828813,-0.0048471866175532,0.1582060009241104,0.3610408902168274
1.368822998046875,0.6359206530123949,0.5382941723231226,0.7368804428428412,0.0259454492479562,0.1837286800146103,0.3851868808269501
1.388873046875,0.617863968122378,0.5387327829360962,1.152564353737235,0.045567113906145,0.174322247505188,0.4170289933681488
1.408924072265625,0.4784551321059465,0.4611760074596852,1.4862462732493875,0.0564791038632392,0.11564601957798,0.4401966333389282
1.42897412109375,0.0888832205296494,0.2864920060530305,1.8881833983421328,0.0007862681522965,0.0256054736673831,0.3756057024002075
1.44902392578125,-0.0585538592448458,0.2019432527974247,2.006194860738516,-0.1189788505434989,-0.0416582562029361,0.2733026146888733
1.469074951171875,0.1505871230369433,0.2106223799459636,1.6325743140697475,-0.1845408976078033,-0.1650450378656387,0.220980629324913
1.489125,0.2364682208748534,0.2524365186508744,1.1305167725801468,-0.169372096657753,-0.2563970386981964,0.2051884084939956
1.50917529296875,0.1156665432380512,0.1289840342443436,0.9560381575524808,-0.2133233547210693,-0.2309221774339676,0.1404605507850647
1.52922607421875,0.1344625021880492,0.0600084054347127,0.6806564513176679,-0.244191363453865,-0.1153862699866294,0.0616007409989833
1.549275634765625,0.2064748683450743,-0.0426765276879072,0.6051303779512643,-0.2398872524499893,-0.000682458281517,0.0023380443453788
1.569326904296875,0.3103998646566644,-0.1849405704723671,0.8164496541202068,-0.2319441586732864,0.0659431666135788,-0.0411947034299373
1.589376708984375,0.2031078578636981,-0.3863631969291716,0.8641109844833612,-0.2039718031883239,0.0675947293639183,-0.1304031759500503
1.609427001953125,0.1621856082309037,-0.6031778556440025,0.9432873970508576,-0.1871077567338943,-0.0025924788787961,-0.2153004109859466
1.629477783203125,0.490364875206165,-0.5295452678740025,0.6517465831756591,-0.1656278222799301,-0.2007937133312225,-0.1884418278932571
1.64952783203125,0.5547530666276812,-0.4914628630433231,0.1818745704978704,-0.1754571050405502,-0.3881512284278869,-0.1663191169500351
1.669577880859375,0.0743096924471203,-0.5860107400048524,-0.7073568267166614,-0.1607971042394638,-0.4965474903583526,-0.273231565952301
1.68962890625,-0.2780848094473593,-0.5491833402039483,-1.300028705111146,-0.1752157509326934,-0.4427284598350525,-0.4380668699741363
1.7096787109375,-0.099931798489578,-0.40936179520078,-1.7121189754277466,-0.1882086396217346,-0.2681629061698913,-0.5783676505088806
1.729729736328125,-0.2807226288713514,-0.2357285997550003,-1.4740718513309954,-0.2639622092247009,-0.072986751794815,-0.7293515801429749
1.749779541015625,-0.6618911067016422,-0.1271955981913022,-1.1727373731940984,-0.417101502418518,-0.0835026428103447,-0.9473052024841307
1.769829833984375,-0.3375200363703072,0.2864307773850858,-1.6122522415310143,-0.5534518957138062,-0.1916006207466125,-1.0649499893188477
1.789880859375,0.4504293533220886,0.5200445221442729,-2.4262252764046197,-0.5121427178382874,-0.2537039220333099,-0.985251486301422
1.809930908203125,1.0932716953564434,0.2236429703649133,-2.8618974978387355,-0.3655279576778412,-0.3163817226886749,-0.7941364049911499
1.82998095703125,1.0568246366426348,-0.3146981098398566,-3.0554876405715943,-0.2505247294902801,-0.2354821860790252,-0.6556794047355652
1.85003173828125,0.9912913303066044,-0.2001065936884842,-3.2797096529334784,0.0085143707692623,0.011037977412343,-0.4975858032703399
1.870081787109375,0.6430082001205534,0.287346832784079,-2.505484106558561,0.3642129898071289,0.195689707994461,-0.2510518431663513
1.890132568359375,-0.2712234905768185,0.2844175561328418,-0.6727583915442228,0.5262983441352844,0.1957120895385742,-0.1815449297428131
1.910182861328125,-1.051064027289301,0.1869299359249882,0.8374836743205786,0.4637863337993622,0.116200752556324,-0.2240765243768692
1.930232666015625,-1.321372668043524,0.2301236741537228,1.0240028557538985,0.4578856229782104,-0.1052665263414383,-0.3013979494571686
1.95028369140625,-1.2770284994043408,0.520315557637997,1.0551993735283614,0.4687366783618927,-0.1292451024055481,-0.3553073108196258
1.970333984375,-1.351682466111332,0.6484945225771516,1.3522680109143257,0.3583314716815948,-0.0051115662790834,-0.4440911114215851
1.990383544921875,-1.4849867747075856,0.7129166528008878,1.5209130974829197,0.1770271062850952,0.1505584716796875,-0.5420531630516052
2.010434814453125,-1.2579267624408006,0.8033095289748161,1.090484037399292,0.0790810734033584,0.2295514047145843,-0.546019434928894
2.030484619140625,-0.8839652203146368,0.7794124474935233,0.3248550544559955,0.1751238405704498,0.1283921599388122,-0.4678246080875397
2.05053564453125,-0.6025728024229406,0.6463780418798327,0.4061234708666801,0.2845974266529083,0.0221954211592674,-0.3594005107879638
2.070585693359375,-0.6787341780181974,0.5496284901555627,0.9301222105294464,0.2952756285667419,0.00362533563748,-0.2693278789520263
2.0906357421875,-0.8648385681055486,0.3839961755368858,1.202447451803088,0.290243536233902,0.0117688793689012,-0.2582760155200958
2.11068701171875,-0.9378207291428,0.2664301188204437,1.3736135812819004,0.2783104479312897,0.0194294620305299,-0.3041755855083465
2.13073681640625,-0.9020898558743298,0.2645535112936049,1.6522119114756584,0.2114026248455047,0.0753079131245613,-0.3251999318599701
2.150787841796875,-0.9853484231889248,0.2206563557695597,1.821003713038564,0.1384257823228836,0.1060024350881576,-0.3586055338382721
2.170837646484375,-1.1373910422638058,0.0346307300068438,2.035797387319803,0.0223686937242746,0.0997940748929977,-0.4378324449062347
2.1908876953125,-1.1038026609167455,-0.0386544325649738,1.830879794886708,-0.0817849338054657,0.140476793050766,-0.5060614943504333
2.210938720703125,-0.634822774773091,-0.1062812771141529,1.546241015484929,-0.1337203681468963,0.0818311870098114,-0.468309998512268
2.23098876953125,-0.2769598240054212,-0.3084094580244272,1.169879061153531,-0.1187153831124305,-0.0285244677215814,-0.3356152474880218
2.251039794921875,-0.2943316684364341,-0.753727240486443,0.8723661871314048,-0.0648647770285606,-0.1044657155871391,-0.2395304590463638
2.27108984375,-0.364292271429114,-1.1950726121861488,0.9365437680095432,-0.0790095254778862,-0.0721887350082397,-0.204994186758995
2.291139892578125,-0.2790001889929175,-1.531763723451644,0.6288643047600985,-0.0721347257494926,0.004752792418003,-0.1737606674432754
2.31119091796875,-0.3300389964325353,-1.7239461913436651,0.2348644024074077,0.0314591079950332,0.1114797592163086,-0.1794338673353195
2.33124072265625,-0.1885970106206834,-1.7884286003872751,0.3427782491594552,0.0978453904390335,0.1975111812353134,-0.1792962253093719
2.35129150390625,-0.1815854878908023,-1.8340031876042484,0.649188130864501,0.0250490680336952,0.2442318350076675,-0.1807349473237991
2.371341796875,-0.0605195698272436,-1.743909075181186,0.1534539471775293,-0.0043255877681076,0.1737964004278183,-0.1342388242483139
2.3913916015625,0.1457755763030611,-1.5114068718604745,-0.8949825080871582,0.1009439155459404,-0.03100854344666,-0.0062061790376901
2.41144287109375,0.0311235804024152,-1.4291761862888932,-1.4970014760196209,0.2317087054252624,-0.1962562203407287,0.1075821220874786
2.431492919921875,-0.4896614396445453,-1.4722881827846168,-1.3068687802642582,0.1935973316431045,-0.0901478976011276,0.0865012183785438
2.451543701171875,-0.7250866908051073,-1.5045818481460214,-1.1503478467315436,0.0005766027607023,0.1792131662368774,0.0063595101237297
2.471593994140625,-0.7133255258627236,-1.4612515327244997,-1.876816201153397,-0.0829828381538391,0.2300598174333572,0.0025589405559003
2.4916435546875,-1.108355721111223,-1.174380391160771,-2.7987591968804595,-0.0161615666002035,0.179507702589035,-0.1257166266441345
2.51169482421875,-0.5930462281322106,-0.639383652947843,-2.526469611442089,-0.1294371336698532,0.250162661075592,-0.1344681978225708
2.53174462890625,-0.1074358905093744,-0.1516125570945441,-3.2761136742681263,-0.0298249032348394,0.2341963648796081,-0.0309994556009769
2.551795654296875,0.0360266002454562,0.3507189790308475,-3.482062947836518,0.2607433497905731,0.2124035954475402,0.0692285597324371
2.571845458984375,0.3242619839336723,0.8297938504703343,-1.8497791411459443,0.3278268277645111,0.2481140345335006,0.1992583125829696
2.5918955078125,0.1560184456369839,1.098215727629885,-0.8144786463081837,0.3454513847827911,0.2954630553722381,0.2656600177288055
2.611946533203125,-0.104808409816306,1.4283219075471163,0.042477205723524,0.3806052505970001,0.3285928070545196,0.2718110382556915
2.631996337890625,-0.1999357854325324,1.6061089164704083,1.0870254213780164,0.3552848398685455,0.2906760275363922,0.2567704021930694
2.652047607421875,0.0543920999228954,1.716693151475489,1.7530723325848578,0.2523781359195709,0.154180109500885,0.2742605209350586
2.672097412109375,0.1640226143997162,1.7950576631382107,1.747072799909115,0.1911209672689438,-0.0209985114634037,0.3309194445610046
2.692147705078125,0.0437277172412723,1.6603440722659228,1.4578811795085669,0.1817015409469604,-0.1785286217927932,0.3301424384117126
2.712198486328125,-0.1560137511955574,1.46723762139678,1.5651982294112443,0.0459405854344368,-0.2136398553848266,0.2832049429416656
2.73224853515625,-0.17928588744523,1.472712545676529,0.9537462472230196,-0.0525694899260997,-0.2010312527418136,0.228339597582817
2.7522998046875,-0.0665700655052438,1.4648434197366236,0.2604337279498577,-0.0259292311966419,-0.1661385297775268,0.2429412901401519
2.772349365234375,-0.237167820511572,1.260951078698039,0.0346720849305391,0.0580103695392608,-0.1033917814493179,0.2234629988670349
2.792400390625,-0.180680501875095,0.933641762957722,0.430613184478879,0.068381130695343,-0.0212907958775758,0.1496330499649047
2.812450439453125,0.0505551155759021,0.8545558782178908,0.8769044150829315,0.0153766591101884,0.0060319365002214,0.1278438121080398
2.83250048828125,0.2064195944938808,0.959959714910388,0.851966373181343,0.0206395480781793,-0.0417581051588058,0.1679177433252334
2.852551513671875,0.1147941077850759,0.9408727371245622,0.8274608774781227,0.0518064200878143,-0.0820730328559875,0.1924916356801986
2.8726015625,-0.0394700232641771,0.6812268716167658,1.1728367419153451,-0.0165806673467159,-0.0696600526571273,0.1551003158092498
2.892652587890625,-0.0195602943859994,0.5242071217164397,1.1995610827118155,-0.0973264276981353,-0.0740719586610794,0.1079022884368896
2.91270263671875,0.1739777528334408,0.4773509702563285,1.000942298161983,-0.1192138344049453,-0.1286892890930175,0.1095919609069824
2.93275244140625,0.2238128470391035,0.4076970768589526,0.6851432413429022,-0.0981676504015922,-0.1832678467035293,0.1315667182207107
2.952803466796875,0.225302245346643,0.2010299373447895,0.5510860685527325,-0.0820164903998375,-0.2201602160930633,0.1365059614181518
2.972853515625,0.1616830655362457,-0.0206176214192062,0.3719745330274104,-0.0617217421531677,-0.2033733576536178,0.1323311030864715
2.992904296875,0.1640241122370585,-0.1952690357305109,0.2674637727171182,-0.0417930483818054,-0.1545950323343277,0.1359514147043228
3.01295458984375,0.0428855307960882,-0.3108030020974576,0.3376747885406017,-0.0216211006045341,-0.1810735166072845,0.1355768591165542
3.033005615234375,-0.143677051387541,-0.4550321709424257,0.5197960272759199,-0.0385051630437374,-0.2463064491748809,0.0943315550684928
3.0530556640625,-0.35462501002606,-0.5484049397099763,0.2702390826493501,-0.0484606698155403,-0.2406283318996429,0.0094079487025737
3.073105224609375,-0.4590796562349423,-0.6550437980901449,0.0982756653130054,-0.0705030411481857,-0.1877747029066085,-0.095284454524517
3.09315625,-0.4215328195856884,-0.6556276623927056,-0.091581136110425,-0.0769831910729408,-0.1452160328626632,-0.1918246448040008
3.11320654296875,-0.2278408239135518,-0.621941081368178,0.0750806676864624,-0.1525501906871795,-0.1372906118631363,-0.2523265480995178
3.13325732421875,-0.377573923937045,-0.5620214501954615,-0.2678916427403688,-0.191846877336502,-0.119441732764244,-0.3414885997772217
3.1533076171875,-0.1788480257509276,-0.4632631159320473,-0.5375614010691643,-0.2152412235736847,-0.1237092986702919,-0.4056988656520843
3.173358642578125,0.2432406010866165,-0.2837432918667793,-0.8857014695227146,-0.1835840344429016,-0.0857414156198501,-0.3591531813144684
3.193408447265625,0.2323652790680527,-0.2952501167219132,-1.0633137064009903,-0.0937886089086532,-0.1035161390900611,-0.2937839925289154
3.213458740234375,-0.2226202762536704,-0.4748036238610744,-0.5591968942940235,-0.0900641754269599,-0.1075401976704597,-0.2919981479644775
3.233509521484375,-0.6441538630243391,-0.5587110835384577,-0.3662695993840694,-0.1597772538661956,-0.1317898631095886,-0.3790227174758911
3.2535595703125,-0.9580185177147388,-0.5256550555024295,-0.5518997230231761,-0.2413391917943954,-0.2272058576345443,-0.4872035086154938
3.2736103515625,-1.0271548900440337,-0.6376617975912988,-1.2463660885065793,-0.2686393857002258,-0.3625491857528686,-0.6256420612335205
3.293660400390625,-0.706452132961899,-0.6236649825513363,-1.783236584702134,-0.2703471779823303,-0.3630896508693695,-0.7263169884681702
3.31371044921875,-0.2810411933012307,-0.5952399753168225,-2.0982430298388004,-0.2494922280311584,-0.2447277307510376,-0.776232123374939
3.333761474609375,0.0598662935502827,-0.4952812522877007,-2.5197306585758925,-0.0881928205490112,-0.0866193249821662,-0.8328999280929565
3.353811767578125,0.7059398725908249,0.0211297356598079,-2.1234891147762536,0.0726431831717491,0.1108448877930641,-0.7729318737983704
3.373862548828125,1.055757299672067,0.6685064331881702,-1.2659551705956458,0.242082878947258,0.2277066707611084,-0.6097095012664795
3.39391259765625,0.7487817469082773,0.937752486212179,-0.1470920109301805,0.4084779918193817,0.1415082663297653,-0.4976425766944885
3.413963623046875,0.1438220493488013,1.0723391627691683,1.024356491497159,0.4308004379272461,0.0394117534160614,-0.5012243390083313
3.434013427734375,-0.280192905908823,1.3367873870573936,1.7760984033852814,0.3122124671936035,-0.01962386444211,-0.5547353625297546
3.4540634765625,-0.5854219072662293,1.5326447440698745,1.7226415384858846,0.1468853503465652,-0.0811476781964302,-0.6250593662261963
3.474114501953125,-0.7712479188036173,1.6225839581921695,0.9535182836860416,0.0604517012834548,-0.0528020784258842,-0.7237498164176941
3.494164306640625,-0.7253571783095598,1.565321855790913,0.6694692868709564,-0.0348575003445148,0.1496487408876419,-0.8045302629470825
3.514215576171875,-0.2863637765634805,1.4305088961973786,0.6914332813978195,-0.1261311024427414,0.3309216201305389,-0.8041364550590515
3.534265625,0.1155974600572139,1.1436527330070734,0.7189426350921392,-0.160386636853218,0.3593963980674743,-0.7056052684783936
3.554317138671875,0.7113438505262136,0.9360422482281924,0.4496382029443979,-0.0533694550395011,0.2290608882904052,-0.4519244432449341
3.574367431640625,0.6751755356885493,0.5683320215817541,0.4498310951679944,0.0863691642880439,0.0824659615755081,-0.1954776793718338
3.594417236328125,0.0640861032024025,0.0404553445070981,1.0491484029263258,0.0761424899101257,0.0233181007206439,-0.09177216142416
3.61446826171875,-0.326205811477825,-0.2730538478091359,1.23454062615633,-0.0012010076316073,0.0316970944404602,-0.0961761996150016
3.6345185546875,-0.3716330991785973,-0.2632654442444443,0.933801191303134,-0.0064078248105943,0.0193297676742076,-0.0962368696928024
3.6545693359375,-0.1464745000863447,-0.2561018362253904,0.8636807763725519,-0.0153967710211873,-0.0454907827079296,-0.0462344586849212
3.67461962890625,-0.1369773162868805,-0.2050168150238692,0.6583925970613956,0.0073196240700781,-0.1143393516540527,0.008493616245687
3.69467041015625,-0.027119587191753,-0.1757639786630868,0.5367138443291187,0.0196231510490179,-0.1444459855556488,0.0773185044527053
3.71472021484375,0.1839002676391974,-0.163706461122632,0.499403812110424,0.0505259409546852,-0.1958377957344055,0.1802843064069748
3.734771484375,0.3499776591442525,-0.1624025389172136,0.5735778863459825,0.0945667251944542,-0.2452805787324905,0.2925407290458679
3.7548212890625,0.3748430376684293,-0.236134349277988,0.8672440218120813,0.0809938684105873,-0.2610145509243011,0.3903983235359192
3.77487158203125,0.3918358927192166,-0.2793158308133482,0.77386548089087,0.1133399233222007,-0.2692426443099975,0.4745919108390808
3.79492236328125,0.1807010697390884,-0.5107499665111302,0.960636591258645,0.0793715268373489,-0.1928378790616989,0.4794016778469085
3.814972412109375,-0.061895242094621,-0.858907862882316,1.0536714333087205,-0.0159866511821746,-0.0411965735256671,0.4071777462959289
3.8350234375,0.0859559897050261,-1.103830864097923,0.870358938962221,-0.0644461289048194,0.1023419797420501,0.3540374040603637
3.8550732421875,0.3846532146735116,-1.1722719476394354,0.556042229655385,-0.0181124452501535,0.1953456401824951,0.3651685416698456
3.875124267578125,0.5858464528212324,-1.2668652711778878,0.5840425817370415,0.0077736107632517,0.185033231973648,0.4236445724964142
3.89517431640625,0.6000337854646146,-1.1967745937984435,0.235751706635952,0.0577527843415737,0.076672688126564,0.5166305303573608
3.915224365234375,0.16484668066632,-1.162491873511672,-0.2240332117915153,0.1111425086855888,-0.0275288186967372,0.5450589656829834
3.935275390625,-0.3689385263323784,-1.1409432548526677,-0.583502483510971,0.089126318693161,-0.023110894486308,0.5010111927986145
3.955325439453125,-0.6567331394165754,-1.1217113887034356,-0.9236094676345586,0.024768091738224,0.0918158292770385,0.4431141018867492
3.975376220703125,-0.7798983313143253,-1.2679698714189231,-1.600990258282423,0.0947880521416664,0.2442236393690109,0.3824517428874969
3.995426513671875,-0.7182013152055442,-1.4335896188169717,-1.3501339214950798,0.1505171954631805,0.4620023667812347,0.3435968458652496
4.0154775390625,-0.6531527967117726,-1.583435020108521,-0.4615238710492849,0.0220852755010128,0.6267682909965515,0.3447815775871277
4.03552734375,-0.7855641750562936,-1.9668363715574144,-0.918465090483427,-0.0771469622850418,0.4475608766078949,0.3816687166690826
4.055577392578125,-1.93676272033304,-1.6585330773212017,-2.380174888369441,0.0503266267478466,0.2503693401813507,0.0771704837679863
4.075628173828125,-1.251813394127041,-0.4008494759865105,-1.6332891843408346,-0.0982354506850242,0.3319916427135467,-0.0725739374756813
4.095678466796875,-0.6626603375084698,0.4516662016406655,-2.0979589522004125,-0.1867137849330902,0.4146212935447693,-0.0401612520217895
4.115729248046875,-0.4065214937409386,0.9041098173946142,-3.11133344643414,0.0667833164334297,0.3216318190097809,0.0556948371231555
4.135779541015625,-0.2468166329424828,1.214989464924857,-2.4062480717808006,0.3101099729537964,0.2591390013694763,0.1560746729373932
4.15583056640625,-0.3951893313329667,1.4353805938869717,-0.8237164302527904,0.3342011868953705,0.2816652357578277,0.1831800937652588
4.17588037109375,-0.825793674918264,1.682178741324693,0.3972416607528924,0.257167637348175,0.3341376483440399,0.0961714386940002
4.195931640625,-0.8491901864662766,1.9958235427193345,1.098380343607068,0.1630554497241974,0.3821359276771545,-0.0059820357710123
4.215981201171875,-0.4853095280453562,2.272540881472081,1.4546347449332475,0.1036823540925979,0.3344397842884063,-0.0085079632699489
4.236031494140625,-0.2329328863555565,2.398352934616804,1.594417894154787,0.0795784071087837,0.2114695012569427,0.0418246127665042
4.256082275390625,-0.2385421410720795,2.3264142182178795,1.7203396912842988,0.0225279107689857,0.0878704935312271,0.0544033199548721
4.27613232421875,-0.1162019652890041,2.2589834807626903,1.741145163425803,-0.0858675166964531,-0.0434454567730426,0.0640844106674194
4.29618359375,-0.0265720728442072,2.24305219052881,1.3469599676340818,-0.189792513847351,-0.1658199578523636,0.096784770488739
4.3162333984375,-0.1444420809432864,2.2035820576667784,0.4904460141509771,-0.2021068483591079,-0.240931898355484,0.1408737897872924
4.336284423828125,-0.4365728966008871,1.8502701395332808,-0.1025783309429883,-0.1610100269317627,-0.2738093137741089,0.1283592730760574
4.356334228515625,-0.5009582384781912,1.4688310280680656,-0.3361848422437906,-0.1121575683355331,-0.1596982777118683,0.0760224461555481
4.37638525390625,-0.1616836135255172,1.369791831036657,-0.0523211388677358,-0.094172365963459,0.0667045935988426,0.0985473245382309
4.396435302734375,-0.0858099322978407,1.1108106399826705,0.5461497811943292,-0.1098731979727745,0.1099135801196098,0.1334282159805297
4.4164853515625,-0.2842501271440647,0.7698346910048276,0.9213380155712364,-0.125418946146965,-0.0456590689718723,0.0953390374779701
4.436536376953125,-0.521190659972094,0.5401403116464615,1.0895020406246183,-0.1816953420639038,-0.166346862912178,-0.0017666639760136
4.45658642578125,-0.4811903657561168,0.3919355171687901,0.7921253602027892,-0.2302000820636749,-0.1306793093681335,-0.0916552618145942
4.476637451171875,-0.1806288082204759,0.2142065220430493,0.4551625193238258,-0.2473171949386596,-0.0691759586334228,-0.1371149271726608
4.4966875,0.1452499997926875,0.0893729585416615,0.2759714888215064,-0.2213820666074752,-0.0947679206728935,-0.1263507008552551
4.516738525390625,0.2609892794733867,-0.107267657802999,0.273385563981533,-0.1989747732877731,-0.1491083800792694,-0.1027081757783889
4.5367880859375,0.19924667065721,-0.3051650692757219,0.1293880119353532,-0.1572724431753158,-0.1741483509540558,-0.1031080931425094
4.556838134765625,0.2525830144494772,-0.4452450094867497,0.112614571788907,-0.121490478515625,-0.1767490655183792,-0.0888167396187782
4.576888916015625,0.1494889890693128,-0.5856640454590321,0.1304547643840312,-0.0866597965359687,-0.1918870061635971,-0.0862334743142128
4.596939208984375,-0.0403472079575061,-0.7472071180026978,0.3218611333370209,-0.0977090522646904,-0.2064098864793777,-0.1145327091217041
4.616990234375,-0.1549210240554064,-0.9146703743755816,0.4316904583215713,-0.1518567055463791,-0.1819383651018142,-0.1657136082649231
4.6370400390625,-0.3515784088717773,-1.1292822623491288,0.2811854240775108,-0.1855102926492691,-0.1038956269621849,-0.2540130913257599
4.657091064453125,-0.1711806694608181,-1.2528580808743834,-0.3363175287127494,-0.0966679453849792,-0.0873412862420082,-0.2945416867733001
4.677140869140625,0.0944443435218185,-1.2432852197565138,-0.3508247774928808,-0.0332461670041084,-0.1084035709500312,-0.2692807614803314
4.69719189453125,-0.0633507381325587,-1.216404227093607,-0.1927957774847745,-0.0434917993843555,-0.1148321703076362,-0.266152411699295
4.717241943359375,-0.3390872126217931,-1.0738231177166104,-0.4282786040514707,-0.0011386182159185,-0.0866350010037422,-0.2986329793930053
4.7372919921875,-0.5739584466287866,-1.0865513010602443,-0.2832657374829053,0.0040205288678407,-0.0517964474856853,-0.3915312588214874
4.75734326171875,-0.4799990370796993,-1.0166931903276593,-0.1015139165818691,-0.0634914711117744,-0.047143779695034,-0.4685847163200378
4.77739306640625,-0.1631827295094728,-0.7878775665652007,-0.5125935485512018,-0.024648493155837,-0.1688978970050811,-0.4494298696517944
4.797444091796875,-0.1130425331437028,-0.5720495077349245,-0.8239841412782669,0.0987472385168075,-0.3025626242160797,-0.3981617093086242
4.817493896484375,-0.2064764392476528,-0.6066329645339399,-0.5802876131176948,0.144968643784523,-0.3274819850921631,-0.39052414894104
4.837544921875,-0.2597000616467557,-0.7682586738597601,-0.2625567114531993,0.1133400499820709,-0.2563669383525848,-0.4377349615097046
4.857594970703125,-0.4218698329877108,-0.7813507951449602,0.0702320586115121,-0.0091190673410892,-0.1494544297456741,-0.5559068322181702
4.87764599609375,-0.5677959054110572,-0.6860183436769992,-0.0130956284165382,-0.1873444467782974,-0.214055135846138,-0.6770894527435303
4.897696044921875,-0.5125303471218794,-0.4983260998763144,-1.0375520731568335,-0.2542769312858581,-0.3667989075183868,-0.7564364075660706
4.91774609375,-0.1792615019226446,-0.3397159389793873,-1.8581553398251531,-0.2191726863384246,-0.4173697233200073,-0.7640058994293213
4.937797119140625,0.2623103720093145,-0.4193966478072106,-2.034063110873103,-0.2117585390806198,-0.3352203071117401,-0.7649683356285095
4.957846923828125,0.57689300224334,-0.2062687147811055,-2.1397166114777324,-0.1657599359750747,-0.0352708958089351,-0.7673854231834412
4.97789794921875,1.6840709848120807,0.4429654471822082,-2.304045003890991,0.0569749251008033,0.1715932190418243,-0.6010345220565796
4.997947998046875,2.229435753108561,1.1108584977123883,-1.5813549989640712,0.3631745874881744,0.1472171992063522,-0.2765848338603973
5.0179990234375,1.722569934554398,1.2974819432377815,-0.353677828836441,0.5861099362373352,-0.0786257907748222,-0.0508148595690727
5.038049072265625,0.8405060178164392,1.3929583332210778,0.7947539551407098,0.6187953948974609,-0.2099696844816208,0.0072608087211847
5.058099853515625,0.0429138435751199,1.475864872227609,1.405479961141944,0.4894432127475738,-0.2151689678430557,-0.0938449949026107
5.078150146484375,-0.440325527132675,1.6653255139403045,1.4767384401917456,0.2894743978977203,-0.0728492811322212,-0.2748936414718628
5.098200927734375,-0.2434810953116044,1.8257884630970656,0.9969505981773138,0.1579444408416748,0.0795688778162002,-0.4045361876487732
5.118251220703125,0.2961315391989425,1.905713502074778,0.8550812903314828,0.0503665655851364,0.1596773564815521,-0.4173527657985687
5.13830078125,0.6222041162185371,1.9016858539938928,0.7191945640265941,-0.0101733636111021,0.1887554675340652,-0.3486910462379455
5.15835205078125,0.9191144943028688,1.7624289206035435,0.6308376506596803,-0.0229273848235607,0.15069380402565,-0.1928384900093078
5.178402099609375,0.9852527077294886,1.4798063033297657,0.671797437557578,-0.0202979333698749,0.0973114520311355,0.0003112184349447
5.198452880859375,0.8155370693199336,1.0131000612065195,0.8827999028623104,-0.0576214045286178,0.0549315772950649,0.1634644269943237
5.218503173828125,0.6522803247261793,0.5988032938215881,0.8279623972594737,-0.050389889627695,-0.0448087155818939,0.2984537184238434
5.238553955078125,0.6977572237223386,0.3650926645591855,0.6819651958286762,-0.0163482911884784,-0.1214546263217926,0.4844494163990021
5.25860400390625,0.3901487068172544,-0.0010611994907259,0.5472703096568584,0.0146173890680074,-0.1660604178905487,0.6083223819732666
5.2786552734375,-0.0411932303275913,-0.3703802495732903,0.6108990244805812,0.0228796433657407,-0.1483144760131836,0.6403712630271912
5.298705078125,-0.1435894827019423,-0.5860596937131136,0.8179220647603272,-0.0264102034270763,-0.1054322719573974,0.6183913946151733
5.318755126953125,0.0053081528780981,-0.5559020174670964,0.9220657453238964,-0.0914663076400756,-0.0708475112915039,0.6244603991508484
5.338805908203125,0.1056604783346876,-0.5640902192935348,0.5962058977395296,-0.0660095810890197,-0.1367789953947067,0.6300588250160217
5.358856201171875,0.2244542867477983,-0.4583053473941981,0.4514706790685653,-0.017939630895853,-0.1342761367559433,0.6530172228813171
5.378906982421875,0.4012795379668474,-0.4818696167245507,0.6711626467853784,-0.041250891983509,-0.097874991595745,0.6942933797836304
5.39895703125,0.3253863117884844,-0.5554678638335317,0.6363526146888733,-0.0510759204626083,-0.0286979209631681,0.6839486956596375
5.419008056640625,0.459106215448305,-0.6057742288127541,0.643593087336421,-0.0388628356158733,0.0299417823553085,0.6837615966796875
5.43905810546875,0.6212785258062183,-0.7011013465184718,0.6706459294348954,-0.0171029586344957,0.0780793949961662,0.6999422311782837
5.459109130859375,0.7483125219613314,-0.8852909890256822,0.7621300349116324,-0.0086664017289876,0.1062648221850395,0.72150057554245
5.479158935546875,0.8215872362043708,-0.9518266042720526,0.7264116557985544,0.0188561175018548,0.1672195196151733,0.7308924198150635
5.4992099609375,0.6331725964132696,-1.0908706255640834,0.9109107295811176,-0.0324191153049469,0.2429089397192001,0.6927810311317444
5.519260009765625,0.7379477067481726,-0.9936329980619252,0.7546721201211214,-0.0901073515415191,0.2426853626966476,0.69657301902771
5.539309814453125,0.9579264555171132,-0.8131741395808756,0.1526052213937044,-0.0882443338632583,0.132840096950531,0.7859168648719788
5.559360595703125,0.7007333899889141,-0.7541311451122165,-0.4396200822770595,-0.0884525999426841,0.0007168310694396,0.8745863437652588
5.579410888671875,0.2722464769490063,-0.857057485775277,-1.1026070213913917,-0.0784249678254127,-0.1467452198266983,0.9006513953208923
5.5994619140625,-0.1009112745136022,-0.975882967968285,-1.8656348819255828,0.0283903703093528,-0.1473974287509918,0.9232970476150512
5.61951171875,-0.3093983229313045,-1.1829951478362082,-2.188995898431539,0.161741241812706,0.0693675503134727,0.9179966449737548
5.639562744140625,-0.539292462645471,-1.3807554158605635,-1.5433458785653114,0.1115927398204803,0.2974647581577301,0.885143518447876
5.659612548828125,-0.9836841432385146,-1.1786908747710287,-1.5583908874839545,0.0358810350298881,0.3776496946811676,0.749578058719635
5.679663818359375,-0.8642574072167277,-0.3119621090047061,-1.6977917593896388,0.0190551280975341,0.3524036407470703,0.6410309076309204
5.699713623046875,-0.0790621385380625,0.4832593905825167,-1.7085305955469607,0.0173168741166591,0.244718536734581,0.6746631264686584
5.7197646484375,0.4931830378994345,0.8502510936960578,-1.863661536026001,0.0382732152938842,0.1332308053970337,0.8034313321113586
5.73981494140625,0.4566594798833132,0.9058299922507256,-2.1678899820387363,0.1444498747587204,0.1429426968097686,0.8746685981750488
5.75986474609375,0.5861886903876439,0.9421909070510416,-1.6546160500079392,0.2001678645610809,0.1818904727697372,0.93200021982193
5.779916015625,0.4628720342552289,1.0405766816750168,-1.0526526116549968,0.2323273718357086,0.2169995903968811,0.916523575782776
5.799965576171875,0.5545826784968376,1.389839470548183,-0.4048123882681131,0.2375819832086563,0.2952793538570404,0.8862043023109436
5.8200166015625,0.9535222292087971,1.718898406434804,0.2595066762328147,0.2440440654754638,0.3894933462142944,0.929620087146759
5.840066650390625,1.2938792425706982,1.9513263754755257,0.9545803599596024,0.2719034254550934,0.414184421300888,1.0267785787582395
5.86011767578125,1.4355056815713645,2.0125366309806703,1.7277923453778028,0.2639470100402832,0.33995521068573,1.1316580772399902
5.88016796875,1.4689590383619069,1.9426931332953272,2.2971137433230875,0.1784753203392028,0.1521130055189132,1.2155439853668213
5.90021875,1.3076098078899083,1.8755200238630172,2.166673007464409,0.1047509387135505,-0.0164713356643915,1.2649023532867432
5.920268798828125,1.1596734550900756,1.9138560381285843,1.8339228158444163,0.0354852639138698,-0.1089696735143661,1.2794561386108398
5.94031982421875,0.8982268968358635,1.9270805536217983,1.652286730277538,-0.0862077921628952,-0.1438432931900024,1.2689626216888428
5.96036962890625,0.6399042427558451,1.7798986724510788,0.8372188859045505,-0.1544230282306671,-0.17952860891819,1.2007381916046145
5.980419677734375,0.5976733034109697,1.5031797262631357,0.1628174033284187,-0.1949316263198852,-0.1495246142148971,1.1210730075836182
6.000470703125,0.732153195125237,1.288332860489935,-0.3297112623155117,-0.1900569200515747,-0.0823365375399589,1.064571499824524
6.020520751953125,0.8601024064291268,1.1748875369653105,-0.5564776984632015,-0.1316965967416763,0.0612323991954326,1.0307725667953491
6.04057177734375,1.1160292514137924,1.1090073899529873,-0.1905517979502677,-0.071753941476345,0.2553152740001678,1.0372885465621948
6.060621826171875,1.2818879221342503,0.912095117060095,0.8142752326905727,-0.1119672358036041,0.2874134480953216,1.03813374042511
6.080672607421875,1.2491019432112571,0.7440006501115858,1.2658610625714062,-0.1668081134557724,0.1649564951658249,1.0217121839523315
6.100722900390625,1.4649346051514147,0.6409542632654309,1.1062316416293383,-0.1818300932645797,0.0090268123894929,1.056649684906006
6.12077392578125,1.557073082883656,0.4969501353479921,0.8884843782395124,-0.203953132033348,-0.0791821554303169,1.1174391508102417
6.14082373046875,1.4305214634180068,0.2600394679352641,0.5434855304211378,-0.2407056093215942,-0.1117051765322685,1.1360334157943726
6.160874755859375,1.2672175917468964,0.0921688728705048,0.1347948394149541,-0.2419014275074005,-0.1388586014509201,1.128435730934143
6.180924560546875,1.1216410999462008,-0.200369573739916,-0.3391664884030819,-0.188949778676033,-0.2197452187538147,1.0970133543014526
6.200975830078125,1.1722581383097916,-0.382915284965001,-0.6530687716901302,-0.1232157051563263,-0.2397378534078598,1.0909335613250732
6.221025634765625,1.1266045675724743,-0.5029010065764189,-0.9777548993200064,-0.0117496885359287,-0.1865419894456863,1.0979225635528564
6.241075927734375,1.0574671723298728,-0.6759238698378205,-0.8033966958016157,0.077394925057888,-0.1182757169008255,1.0897369384765625
6.261126953125,1.073946159574389,-0.8527050627194345,-0.3977110318303108,0.1436528116464615,-0.1010145917534828,1.0787655115127563
6.2811767578125,1.0499632264405487,-0.9804169581361114,-0.0087491236448287,0.2049058079719543,-0.1504697203636169,1.0701181888580322
6.30122802734375,0.9315062852989882,-1.0230028849311172,0.1448398480892181,0.2442415058612823,-0.2199262231588363,1.0273184776306152
6.321277587890625,0.7839885963026434,-0.9501387242503464,0.1785235065042972,0.2098195403814315,-0.2350266128778457,0.9591948986053468
6.34132861328125,0.7199192981045692,-0.9048281217318028,-0.0958814636528491,0.153083860874176,-0.3104544878005981,0.88331538438797
6.361378662109375,0.5936224571175873,-0.811057439687848,-0.8181804234355687,0.1810908168554306,-0.4453852772712707,0.7952136397361755
6.3814296875,0.5093499635200948,-0.7477892287395894,-1.448461024734378,0.2326733320951461,-0.414559930562973,0.6991494297981262
6.40147998046875,0.496922370558232,-0.6265330853335559,-1.5810224060088396,0.2144040465354919,-0.2190797179937362,0.5850718021392822
6.42153076171875,0.3528371402285993,-0.4221038609392941,-1.3458189809054135,0.09296415746212,-0.0693318918347358,0.4495915174484253
6.441580810546875,0.3474697679765522,-0.1042123618856072,-1.6409376532673834,0.0119490567594766,-0.0806551426649093,0.3359452188014984
6.4616318359375,0.5212717989169061,0.0337442294958978,-1.995172531464696,-0.0441325381398201,-0.1378602236509323,0.2378644347190857
6.481681640625,0.9319244376458228,0.0988112334944307,-2.3101029887557027,-0.0713337287306785,-0.1148008331656456,0.2443446516990661
6.501731689453125,1.3323783384434875,0.0678938249222934,-2.762487860059738,0.0543361753225326,0.0266225878149271,0.325689435005188
6.52178271484375,1.6683400394558905,0.1662411672320216,-2.579631877309084,0.3051019012928009,0.2030001580715179,0.475442111492157
6.541831787109375,1.6902305303551255,0.5823739909376948,-1.5122610044717788,0.5228427648544312,0.3741837441921234,0.6560064554214478
6.5618828125,1.2289203020565211,0.9487659745924174,-0.1380664084315299,0.6475251913070679,0.4262498021125793,0.7851095795631409
6.5819326171875,0.5427496904272586,1.257143356978148,1.0210375762075186,0.7120214700698853,0.3211511671543121,0.8618689179420471
6.60198388671875,-0.0489154220774769,1.4140242098644376,1.8109762400209903,0.668080747127533,0.090785339474678,0.8499905467033386
6.622033935546875,-0.5890038574062287,1.483130771577358,2.12920281624794,0.4774056375026703,-0.0473348274827003,0.7339739799499512
6.642084716796875,-0.728295496783778,1.3991989811763166,1.5337942063659429,0.3098406493663788,-0.0630615726113319,0.539814293384552
6.662134765625,-0.5251541933082043,1.3777299305595456,0.7788537906974553,0.2172774970531463,0.1011908426880836,0.385138064622879
6.682185546875,0.0703669370375573,1.3809766573958098,0.4198182342201471,0.1686825007200241,0.2491191923618316,0.3776689767837524
6.70223583984375,0.4719743917845189,1.2922687386341392,0.3335878114879131,0.1736514866352081,0.2742647230625152,0.454876035451889
6.72228564453125,0.5710558935876935,1.067546960056573,0.4615741399317979,0.1669843345880508,0.2368183583021164,0.5320144891738892
6.742336669921875,0.7166703793112188,0.8977350216656923,0.5291968928277492,0.169940784573555,0.2333941459655761,0.6394397020339966
6.762386962890625,0.6743710874378681,0.7799101678825915,0.4592921664744615,0.2078316509723663,0.255224198102951,0.7545308470726013
6.782437744140625,0.5818215446867049,0.5601306680127978,0.7719611085742711,0.2088673412799835,0.2100495398044586,0.8383549451828003
6.802488037109375,0.5429544192191214,0.3235765589527785,1.0183575433433056,0.1667037904262542,0.1091987043619155,0.90363872051239
6.8225390625,0.4673735469255596,0.1468630244798958,0.8787754696518182,0.1350955367088318,0.0396690219640731,0.940546691417694
6.842588623046875,0.2982689530864357,0.0329579744890332,0.6823416279256344,0.0963662788271904,0.0655498802661895,0.9305139780044556
6.862639892578125,0.2902893525093794,-0.0776363435186445,0.521824902755022,0.0676128044724464,0.112369604408741,0.8914601802825928
6.882689697265625,0.5299458845641464,-0.0777307438038289,0.3019529022961855,0.079017274081707,0.1344171613454818,0.8953306078910828
6.90274072265625,0.6931553559500724,-0.0534707472942769,0.3089168960899114,0.1002512946724891,0.159476637840271,0.9125051498413086
6.922790771484375,0.6270281023088842,-0.0895040375754237,0.6263806712508201,0.0523217990994453,0.2018756568431854,0.8852648735046387
6.942841796875,0.538766685205698,-0.107384123789519,0.5287479800164699,0.0249892156571149,0.2260205149650573,0.8447024822235107
6.96289208984375,0.6968690427109598,0.0201100372232496,0.4268757515162229,0.0281299911439418,0.2437794357538223,0.848212718963623
6.98294287109375,0.7453387668475508,0.0429017147459089,0.5298264229029417,0.0313503481447696,0.2172141075134277,0.8556207418441772
7.00299267578125,0.5897700194731355,-0.0629044922024011,0.6655278557687997,-0.012338594533503,0.2329554110765457,0.8213057518005371
7.023042724609375,0.4079547779470682,-0.2215327732779085,0.7254658993810414,-0.0552516244351863,0.3111959099769592,0.7811262607574463
7.04309375,0.3233030027084052,-0.3065815850101411,0.5631669669687748,-0.0324219763278961,0.34378382563591,0.7343077063560486
7.063143798828125,0.456404336078465,-0.335501536154747,0.7802887919366359,-0.0710686966776847,0.3072259128093719,0.7197474241256714
7.08319482421875,0.4515574075039475,-0.3567835397668182,0.6692436614215374,-0.1183190643787384,0.2739156186580658,0.7427440285682678
7.10324462890625,0.301736117740348,-0.4713610821917652,0.1502349851310253,-0.1015460565686225,0.230181872844696,0.736113429069519
7.1232958984375,0.2684841287408024,-0.5863019780363887,-0.228073427093029,-0.0467905066907405,0.1939554363489151,0.7263733148574829
7.143345947265625,0.2724471140876412,-0.6282496069278568,-0.5610919142603874,0.0143394581973552,0.2117385268211364,0.7393689155578613
7.163396728515625,0.104715854428336,-0.7550312357570975,-0.5894634377419948,0.0159611776471138,0.333654910326004,0.7566977739334106
7.18344677734375,0.0517820635549724,-0.9331196387797592,-0.4994768773466348,-0.0092821978032588,0.496512621641159,0.7709771990776062
7.20349755859375,-0.0190663733892142,-1.0597171432137489,-0.6281248845696449,0.0449124537408351,0.5299027562141418,0.736085057258606
7.2235478515625,-0.0017161562681198,-0.8959567599467932,-0.2150520329564809,-0.025355203077197,0.3795965015888214,0.7338122129440308
7.243598876953125,-0.4478142754528671,-0.5565479872204363,-0.6829489461690187,-0.1483075320720672,0.1898481547832489,0.6699065566062927
7.263648681640625,-0.6655766633465886,-0.1516553002577275,-1.577483710488677,-0.2065357416868209,0.125340923666954,0.5473089814186096
7.283699951171875,-0.1367727518917992,0.2207914533913135,-2.360557749229669,-0.1843598634004593,0.1592626720666885,0.5342166423797607
7.303749755859375,0.0735613491646945,0.473550993451476,-2.703092252761125,-0.0860687345266342,0.258297324180603,0.5667293071746826
7.323800048828125,0.0910061127014458,0.3065474635448306,-2.2272183693200347,0.0107058407738804,0.2839690446853637,0.5615856051445007
7.343850830078125,0.0827418864967301,0.3390652199856936,-1.4364379939854144,0.0836761444807052,0.2355554848909378,0.5064412355422974
7.363900634765625,0.4257985142061486,0.829156794675812,-0.7192547697812318,0.1254656016826629,0.2699213027954101,0.518710196018219
7.383951904296875,0.8208956737436354,1.3692773056432603,-0.0171036950141191,0.1490765810012817,0.3554584681987762,0.6083555221557617
7.404001708984375,0.961176178028062,1.6028005225747823,0.862591227570176,0.1543785780668258,0.3354703187942505,0.738717794418335
7.424052734375,0.7359120362021029,1.611741661660373,1.60642280472517,0.0900325179100036,0.1948338598012924,0.7750248312950134
7.444102783203125,0.7724097291246056,1.6035547019429504,1.709048481941223,0.0096595846116542,-0.0130327399820089,0.8096073865890503
7.46415380859375,0.8815222841419279,1.7594729934073985,1.1359773760735987,0.0081756319850683,-0.1776467561721801,0.8967372179031372
7.484203857421875,0.3516653930354863,1.6702072946324944,0.688123718458414,-0.0177120752632617,-0.2474945485591888,0.8862938284873962
7.5042548828125,-0.1442075050024315,1.3625614413917064,0.3180693398386239,-0.1427875608205795,-0.2830806672573089,0.7632644176483154
7.5243046875,-0.1794703954329714,1.2431146854951978,-0.827098473906517,-0.1456353962421417,-0.1849202662706375,0.650826632976532
7.5443564453125,0.0724965329447761,1.0703179591398686,-1.2916110053777694,-0.051887109875679,0.0453370213508605,0.5856788158416748
7.56440673828125,0.1986053405463695,0.8861855997778475,-0.5156891764789819,-0.0093089435249567,0.2846740484237671,0.5470510125160217
7.58445654296875,0.4636912782162428,0.6920020942617208,0.500892004841566,-0.0061389720067381,0.3365618586540222,0.5502792596817017
7.6045078125,0.683494889613986,0.6445422778200358,1.1808815166831017,0.0282117705792188,0.2145629525184631,0.5890311598777771
7.624557861328125,0.5191995957527309,0.4329282564882188,1.735264873215556,-0.0034989991690963,0.0621592849493026,0.5835093259811401
7.644608642578125,0.4741444658325985,0.2133789121124893,1.9795114364743231,-0.1175117492675781,-0.0181632600724697,0.5447812676429749
7.664658935546875,0.4414626414038241,0.1359428404062986,1.5769143861681223,-0.1885610520839691,-0.0217998977750539,0.5255411863327026
7.684709716796875,0.3922285452986135,0.0241371007822453,1.0053244587689638,-0.1682705283164978,-0.055677693337202,0.4833195805549621
7.704759765625,0.4633906513018533,-0.1506244959052652,0.9015788376122712,-0.1978672742843628,-0.075182169675827,0.4429619908332824
7.724810791015625,0.5206024848205968,-0.3252329478576779,0.5432943917632103,-0.2115548402070999,-0.0835847184062004,0.4090703129768371
7.744860595703125,0.6261344414047897,-0.4639014138355851,0.0680506229192018,-0.1547580361366272,-0.1096947640180587,0.3946821987628937
7.764911865234375,0.7025985262736678,-0.6138769443128258,-0.0645756402850151,-0.0788549780845642,-0.1292160898447036,0.3995371460914612
7.784961669921875,0.6538216358840465,-0.7912071493793279,-0.0129816466480493,-0.0215969420969486,-0.1289568245410919,0.3994803726673126
7.8050126953125,0.5240839337281883,-0.9886780790682882,-0.0254804782152175,0.0431578382849693,-0.1620367616415023,0.3864465653896332
7.825062744140625,0.4516011005152016,-1.0626666406691074,-0.0017687632381916,0.1120269000530242,-0.2118059694766998,0.3634306788444519
7.84511376953125,0.2400286533027887,-1.107578380063176,0.0509141946792602,0.122357003390789,-0.2247325330972671,0.3019383251667022
7.8651640625,0.0700105978805571,-1.1294322652790694,-0.0841430950641632,0.1185404285788536,-0.2427823692560196,0.1971269696950912
7.88521484375,0.0518757331877946,-0.9941057301402092,-0.155097622731328,0.0803907215595245,-0.2621814906597137,0.0914199352264404
7.9052646484375,0.1367496267445385,-0.791652555059269,-0.3925298298001289,0.0229390393942594,-0.3075383305549621,0.0252868346869945
7.925314697265625,0.0678713938947767,-0.6469366256106645,-1.016978656205535,0.0486290156841278,-0.3314542770385742,-0.0435433946549892
7.94536572265625,0.1625453814540058,-0.485458142735809,-1.3306553140431645,0.0888032689690589,-0.2633857727050781,-0.0990044921636581
7.965415771484375,0.2892094483181834,-0.3126698188826441,-1.0360656339913603,0.0456584692001342,-0.1296348869800567,-0.1480993330478668
7.985466796875,0.0633372575964778,-0.1497865837763994,-0.7015466791331768,-0.0772833526134491,-0.0871350914239883,-0.2260317653417587
8.005516845703125,-0.2792016298491507,0.149998546026647,-0.7245756725430488,-0.2113555967807769,-0.1564767956733703,-0.3401733636856079
8.02556787109375,-0.1339616034612059,0.3910962168004364,-1.0496014073908329,-0.3082910180091858,-0.264552354812622,-0.4214054942131042
8.04561767578125,0.4408345726333558,0.6980412282954901,-1.469315012192726,-0.2718849778175354,-0.3748342394828796,-0.3697964549064636
8.06566845703125,0.7606052364971488,0.540755667065829,-1.6744623217284678,-0.2158536911010742,-0.4098893404006958,-0.3073080778121948
8.08571875,0.954560851541534,0.1527158421613275,-2.1202911955177783,-0.171688511967659,-0.2084099799394607,-0.2603648900985718
8.105769775390625,0.8746499141544103,0.113998792688921,-2.50921627882421,0.0306601393967866,0.1643197387456894,-0.2025618851184845
8.12581982421875,0.7777631459165364,0.2407856091499328,-1.4374305121541022,0.2565448880195617,0.4393291175365448,-0.1108878031373024
8.145870849609375,0.5490496673543006,0.5170109996672719,0.087063950946927,0.4149608910083771,0.4709392189979553,-0.0187661293894052
8.165920654296874,0.1308746702965348,0.6256665316320955,1.317617553293705,0.4644238352775574,0.2816836833953857,0.0070257307961583
8.185971923828125,-0.3596584376160055,0.6971485903047024,2.137469124811888,0.3523977696895599,0.0121923796832561,-0.0238769315183162
8.206021728515625,-0.8767002708129584,0.7483104030694812,2.068420138505101,0.172858640551567,-0.1656826138496399,-0.1278945803642273
8.22607275390625,-1.0905807757720352,0.8132854910008609,1.047434000223875,0.0782914087176323,-0.1895733028650283,-0.2755716741085052
8.246122802734375,-0.853540125304088,0.8793297425337135,0.5119949981361628,-0.0280419960618019,-0.0787000283598899,-0.3580155968666076
8.266172607421876,-0.4012036231864243,0.892875672001019,0.0416027609765529,-0.0761858150362968,0.0292541980743408,-0.3304714560508728
8.286223876953125,-0.1059027991905808,0.8249304091524332,-0.56996437202394,0.0257202722132205,0.0715034082531929,-0.2494409531354904
8.306273681640626,0.0798999045364558,0.5836049940373749,-0.4916507137656211,0.1604472249746322,0.0613052807748317,-0.1551064401865005
8.32632470703125,0.2234336384631693,0.3643658115893602,0.1888566844701766,0.2059075087308883,0.0656279549002647,-0.0850196853280067
8.346374755859374,0.190557789299637,0.273463889914751,0.7884054628968238,0.1914184093475341,0.1303753852844238,-0.0517840571701526
8.36642578125,0.1811097236052155,0.2197800843916833,1.1900456508696078,0.1463646292686462,0.1527760624885559,-0.0346111543476581
8.38647607421875,0.1861007368255406,0.1820942776631564,1.341845985621214,0.1176892220973968,0.0829451754689216,-0.0216558463871479
8.40652685546875,0.1255113896977156,0.1666208141993731,1.2260446004897356,0.1080020368099212,0.0110496375709772,-0.0110589805990457
8.42657666015625,0.0783775903400033,0.1746028259292245,1.1071703837841749,0.0760714337229728,0.0002344101667404,0.0028878229204565
8.446627685546876,0.085477339342609,0.109934538924694,1.155813126400113,-0.0211599376052618,0.0172083899378776,0.0301079601049423
8.466677734375,0.0597222089044749,0.0293465790588408,0.8089005539149046,-0.0809371694922447,0.0302648097276687,0.0723557397723198
8.486728759765626,0.0713841512560844,-0.0519762709528207,0.4287053050309419,-0.0531557500362396,0.0061221607029438,0.1285261809825897
8.50677880859375,0.0698770346287638,-0.1455647282976657,0.5391185673832893,-0.0390561036765575,-0.0282210186123847,0.1758619397878646
8.526829833984374,-0.0350402606558054,-0.2676980198644101,0.6620254006057977,-0.0631825998425483,-0.0123808439821004,0.1823039501905441
8.546879638671875,-0.1142605123650282,-0.3717207774620503,0.6917535993933678,-0.086032710969448,0.0556882284581661,0.1549436151981353
8.5669306640625,-0.0162057232610881,-0.46848479610309,0.732690005415678,-0.1139905154705047,0.1084894090890884,0.1301255822181701
8.586980224609375,0.2246523666031658,-0.6246211872976273,0.7696709518104791,-0.1404008567333221,0.0971055701375007,0.1342662721872329
8.607030517578124,0.2755481488429009,-0.7211413141801953,0.5800748471498489,-0.1313125640153885,0.0838536769151687,0.1527608633041381
8.627081298828125,0.3051487757280469,-0.8296507156725973,0.5204863476276398,-0.1508114039897918,0.0888564139604568,0.1480310559272766
8.647131591796875,0.3107075058337301,-0.9275323401667176,0.3501110762655735,-0.1964624524116516,0.0697008445858955,0.1433326601982116
8.6671826171875,0.2855430347651243,-0.9647179422881452,-0.1987958946824073,-0.1741824001073837,0.0349836461246013,0.1459217816591262
8.687232421875,0.2379887449730187,-0.8998799247398972,-0.504383354088664,-0.1419751495122909,0.0704156309366226,0.1927661448717117
8.70728369140625,0.0572533345729112,-0.9541405803028492,-0.8829092084556818,-0.0678389444947242,0.1129540279507637,0.2254804968833923
8.72733349609375,-0.0762308606348931,-1.1330864769376814,-0.913053002306819,-0.0048987166956067,0.1501096785068512,0.2263946384191513
8.747384521484374,-0.3028585458990186,-1.3437453895017504,-0.7243301733493804,0.0262939687818288,0.2920649349689483,0.1943339854478836
8.767434326171875,-0.2273550496906042,-1.4556936063364148,-0.389392700818181,0.0486843697726726,0.432480901479721,0.1915633827447891
8.7874853515625,-0.2008711665865033,-1.493746858137846,-0.1148725798487663,0.0797657594084739,0.498359203338623,0.1588639467954635
8.80753564453125,-0.2360849937109276,-1.4869652351737022,0.4215723844110965,-0.0072678755968809,0.4812488555908203,0.1335574090480804
8.82758642578125,-0.3620417525559664,-1.5847960793286562,0.1474994226872921,-0.1425072401762008,0.2200266867876052,0.0982377752661705
8.847636474609375,-0.8154738678906113,-1.3566095472499728,-0.8456669807761907,-0.2226906269788742,-0.0475248321890831,-0.0784138068556785
8.8676875,-0.6972991046912967,-0.601022358110547,-1.7254080805897711,-0.2641797363758087,-0.0603715330362319,-0.232829749584198
8.887737548828126,-0.1167224089665338,0.1523532193940132,-2.6509219205409287,-0.1816674023866653,0.0104324407875537,-0.1588774174451828
8.90778857421875,0.1689373840460553,0.4949746705565601,-3.3370874906688925,0.0267991889268159,6.93225301802e-05,-0.0154708651825785
8.927838623046876,-0.1266913201972842,0.6658829528167843,-2.931406502872705,0.2369954735040664,0.1116058379411697,0.0933233574032783
8.947889404296875,-0.0628351167606189,0.8437653118733316,-1.4763602545291183,0.2712565660476684,0.2347638607025146,0.1448093801736831
8.967939453125,-0.0355587681045755,1.0751634264096617,-0.2469762804836034,0.2049611210823059,0.3375305533409118,0.1398610323667526
8.987990478515625,0.0705861144798807,1.2776776109628378,0.3341372620642185,0.1672774404287338,0.3888595700263977,0.1593593209981918
9.008040283203124,0.4135713391872123,1.390020087812096,0.7974357415705918,0.1850574165582656,0.3012629449367523,0.2532682418823242
9.028090576171875,0.5330596692031249,1.3111547870203852,1.1416232730060816,0.2167993932962417,0.0961224883794784,0.3464933037757873
9.0481416015625,0.4737723080519586,1.3117659046560526,1.195478197312355,0.2279592752456665,-0.0347758643329143,0.4159233570098877
9.068191650390624,0.3072350804828107,1.290983228868246,1.0883528705894947,0.2210603654384613,-0.0780521035194397,0.4637345373630523
9.08824267578125,-0.0400388543943874,1.1425607730519023,1.279293375596404,0.1183931827545166,-0.1923765391111374,0.4212882220745086
9.108292236328126,-0.2979649469048716,1.0398897953893989,0.8649731542706489,0.0030449200421571,-0.2919258177280426,0.3403568863868713
9.128343505859377,-0.4205662395758554,0.9845976778868584,-0.1073749175697565,0.0317137651145458,-0.2403613775968551,0.2661515176296234
9.148393310546876,-0.2640041885814629,0.7989857474915683,-0.2045528507739305,0.045180682092905,-0.0980414003133773,0.1879668533802032
9.1684443359375,-0.0749017674556002,0.7894723614759743,0.289760360199213,-0.0172131434082984,0.1552255153656005,0.1335914880037307
9.18849462890625,0.0869861364703625,0.7266318744204938,0.5441273354560137,-0.0229774229228496,0.2907190024852752,0.1203317120671272
9.20854541015625,0.4845212272118777,0.782957426624,0.8917647150844336,0.0683410465717315,0.1999626755714416,0.1881073564291
9.228595703125,0.4491340162819251,0.5909251077923924,1.5118717128932475,0.0323287509381771,0.0229427181184291,0.2092874199151992
9.248646484375,0.0180057218877598,0.4231599458634853,1.6322405520707368,-0.1044035702943801,0.0512624680995941,0.1936674416065216
9.268696533203125,0.0069484491647221,0.4029625226177274,1.1165765100330114,-0.1536995619535446,0.1291974782943725,0.1509972810745239
9.288747802734376,0.1153213739290367,0.3532199290011077,0.7411153039336205,-0.1257456988096237,0.139491394162178,0.1578011214733123
9.30879736328125,0.0934598625291138,0.2165747124791145,0.5400076251775026,-0.0138372899964451,-0.0414147265255451,0.1197810843586921
9.328848388671876,0.1347237834727391,-0.0425564815048128,0.585595071876049,-0.0105293057858943,-0.2674615681171417,0.0057199662551283
9.3488984375,-0.0029338980274274,-0.0087764500431716,0.3053109805524349,-0.0667714104056358,-0.0865228325128555,-0.0448155514895916
9.368949462890624,0.1264380760885775,-0.2078505771450698,-0.0209264681726694,-0.0671845898032188,-0.0009639677591621,-0.0766793191432952
9.38899951171875,0.1483638757632114,-0.3650078358199447,0.1815676965057849,-0.0866961479187011,0.0143640656024217,-0.0896181836724281
9.409050537109374,-0.1477639553749933,-0.6492019401941448,0.4201420593470334,-0.146567165851593,0.0733438655734062,-0.1738016009330749
9.4291005859375,-0.006595270079188,-0.7713993830382824,0.2014087075293064,-0.0972403883934021,-0.0245854184031486,-0.2313595712184906
