timestamp,acc_x,acc_y,acc_z,gyro_x,gyro_y,gyro_z
0.09351806640625,0.8902930350966751,1.1084079627551138,-0.619323738476634,0.0907786265015602,0.0953336656093597,-0.2187982946634292
0.11356884765625,1.10242348151803,0.9632777534171938,0.2683317877233028,0.0877797529101371,0.1291435062885284,-0.1349714547395706
0.133619140625,1.1890037406012417,0.8660082694720477,0.9823165081471203,0.0572680979967117,0.0655092671513557,-0.0313046239316463
0.153670166015625,1.0337195092566311,0.7195336597878486,1.2038263389408588,0.0872695297002792,-0.0478085465729236,0.0237073432654142
0.173719970703125,0.9080248719464988,0.5563388014491647,1.155380580201745,0.0515552535653114,-0.1113920956850051,0.0863348469138145
0.193771240234375,0.9092496645011008,0.3997240521531552,1.257110769882798,-0.0116839706897735,-0.165816381573677,0.1509662568569183
0.213822265625,0.7403286836005747,0.2639241273488849,0.8667495162934065,-0.0030491009820252,-0.2417702823877334,0.1759476661682129
0.2338720703125,0.4507461641862988,0.1075854185152798,0.4840121817111968,-0.0080115627497434,-0.2259277701377868,0.15273417532444
0.253923095703125,0.2642023963009938,-0.1196755962163209,0.5172621248841286,-0.0499099493026733,-0.2146010398864746,0.1139925941824913
0.273972900390625,0.1713254116937518,-0.2809022232219577,0.0582727407485246,0.016509810462594,-0.2021122723817825,0.0726683437824249
0.29402392578125,0.233365249890834,-0.3988674353238195,-0.1324468149840831,0.0828589424490928,-0.2029472142457962,0.0560771524906158
0.314073974609375,0.3972699369993061,-0.6083003132242709,0.451187770473957,0.0224816836416721,-0.1803228259086609,0.0487395711243152
0.334125,0.3555792420109733,-0.7164283872488886,0.4961626382321119,0.0354539006948471,-0.2230122983455658,0.0333694070577621
0.354176025390625,0.3878887990612536,-0.7552302654605358,0.311897957727313,0.074016697704792,-0.225235715508461,0.0355314351618289
0.37422607421875,0.5460126012133434,-0.7845822513468563,0.3886351604491472,0.0736757814884185,-0.2538908720016479,0.0493698082864284
0.394277099609375,0.6106618181912228,-0.8476473409384488,0.3216641494601965,0.0746966823935508,-0.2712591290473938,0.0566760562360286
0.414326904296875,0.5502449415534735,-0.7971120625741779,0.1143383268415927,0.0838507488369941,-0.2979812622070312,0.052577756345272
0.4343779296875,0.4816130116149782,-0.7800820173181593,0.132148708820343,0.0346300601959228,-0.3220791816711426,0.0358806513249874
0.454428955078125,0.5834234999906271,-0.7048242394991219,-0.1502297244340181,-0.0070757884532213,-0.3265863955020904,0.0444783791899681
0.47447900390625,0.610195406255871,-0.5835505604363977,-0.6878706204801798,0.0229980703443288,-0.3653382062911987,0.0311456620693206
0.494530029296875,0.6233898188717663,-0.6226368085473776,-0.7297621352702379,0.016580170020461,-0.3112745285034179,-0.0073008141480386
0.514579833984375,0.6514882245004177,-0.5628244371414184,-0.5692249518334865,-0.0439250990748405,-0.1889590919017791,-0.0273649375885725
0.534631103515625,0.6679184041671454,-0.4636868943020701,-0.6276157660037279,0.0017802254296839,-0.215916633605957,-0.0500198565423488
0.55468212890625,0.3864520807890221,-0.4324972446598112,-0.8115005072802305,0.0141360955312848,-0.3371829390525818,-0.1259698420763015
0.57473193359375,0.3230413560975342,-0.4135509905189276,-0.5296826305180787,-0.1432287245988845,-0.2845646440982818,-0.2223334014415741
0.594783203125,0.325756314144656,-0.3375470705077052,-1.1732371394097805,-0.1859289705753326,-0.0797543600201606,-0.2976391315460205
0.614834228515625,0.7995739226430654,-0.153092712649703,-1.641160356107354,-0.1365861743688583,-0.0216901395469903,-0.2754270434379577
0.634884033203125,1.1555068369299173,0.0350722632292658,-1.543532925570011,-0.0738609209656715,-0.0179424136877059,-0.1305538415908813
0.654935302734375,1.193444499527663,0.12289908830747,-1.5437041904836892,0.0845699533820152,-0.0190494135022163,-0.0099983355030417
0.67498486328125,0.7268611531317234,0.0586404050171375,-1.1810364149838686,0.2371120899915695,0.0496497564017772,0.0222152601927518
0.695035888671875,0.3087296664221212,0.1016733449272811,-0.2724380539983511,0.2922176420688629,0.19831083714962,0.0091786449775099
0.715087158203125,0.1018907870702445,0.2315592233821749,0.8277788573861121,0.273768275976181,0.2256067991256714,0.0067445198073983
0.735136962890625,-0.067890938845463,0.5174646617189049,1.439613116890192,0.2437037676572799,0.1357731968164444,-0.0083688236773014
0.75518798828125,-0.5721079599238932,0.7140906650163232,1.3255097678482533,0.2134375125169754,0.1058799400925636,-0.0955344215035438
0.775239013671875,-0.9200190419271588,0.777689569223672,1.315275374081731,0.099196583032608,0.1544423401355743,-0.2470090389251709
0.7952890625,-0.7180287351176142,0.9543509351179004,1.144166527748108,-0.0236717332154512,0.1930019855499267,-0.3016689121723175
0.815339111328125,-0.2193144031086936,1.1835353921927512,0.4910772977918386,-0.053856935352087,0.201109766960144,-0.2351393103599548
0.83538916015625,0.0865710528634488,1.2160916540130973,-0.0671428604245185,-0.0132729467004537,0.209068164229393,-0.1038803458213806
0.855440185546875,0.1829811435002833,1.1001584591954945,-0.0990758757799863,0.0098829772323369,0.2074305266141891,0.046246487647295
0.8754912109375,0.1610642943170853,0.8563764447085559,0.2168564520299434,0.0353570282459259,0.1792492121458053,0.1565383076667785
0.895541015625,-0.0840433610167354,0.5577221455663443,0.4526958369493484,0.0556276887655258,0.1515931934118271,0.2033979445695877
0.915591796875,-0.1993764345167204,0.3322955797202885,0.8193845385283232,0.0146055556833744,0.1428611725568771,0.2207451462745666
0.93564306640625,-0.3901462225992232,0.1348093063317239,0.9856044437766076,-0.0202332008630037,0.1382624208927154,0.2211798429489135
0.95569287109375,-0.3952827087048441,0.1019312652111053,0.8688514570087194,-0.0137716112658381,0.1384987235069275,0.2371133416891098
0.975743896484375,-0.4087789903441444,0.0269666251197457,0.9629226563692092,-0.0517505146563053,0.108774609863758,0.2307148724794387
0.995795166015625,-0.6691809714488685,-0.1246164136193692,1.1493079822897911,-0.1417301148176193,0.1022901162505149,0.174498975276947
1.015844970703125,-0.6633530690129846,-0.1975534934058785,1.062789974787831,-0.2026139050722122,0.0655832216143608,0.1470917165279388
1.03589599609375,-0.4293660704946145,-0.1870071110807359,0.6571370440423489,-0.1824423372745514,0.0142645668238401,0.1666468232870102
1.055947021484375,-0.4133999646756798,-0.1675169593214988,0.2163888345181941,-0.1417083442211151,0.0761578306555748,0.185410276055336
1.0759970703125,-0.3169303258713334,-0.267990134678781,0.2507861941605806,-0.1627444326877594,0.16602124273777,0.2237111330032348
1.096048095703125,-0.1501587324238847,-0.4070125286608934,0.37844694391191,-0.1718834936618805,0.1677426248788833,0.2662757635116577
1.11609912109375,-0.1615344873784109,-0.5494621206127107,0.5014490542024373,-0.1589700579643249,0.1074292808771133,0.2972847521305084
1.136149169921875,-0.3737477532450109,-0.7397055102009326,0.4241775984734297,-0.1359981447458267,0.1269157528877258,0.2483070790767669
1.1562001953125,-0.4678279396295547,-0.9717704911481588,0.226930102276802,-0.1063411757349968,0.274433434009552,0.1998828053474426
1.1762509765625,-0.0758476060715038,-1.0072026737309991,0.4666927981197833,-0.1077690795063972,0.3451063930988312,0.2340859472751617
1.196301025390625,0.1669659378426149,-0.9584268793199212,0.7270663203150034,-0.0926141962409019,0.2811827063560486,0.3113039135932922
1.21635205078125,0.0571479745022952,-0.9583169161394238,0.7678624410837889,-0.1036912351846695,0.2101253122091293,0.3426183462142944
1.23640283203125,-0.1866364146048203,-0.999664971702546,0.6059931322604417,-0.1319877207279205,0.1538653820753097,0.336450845003128
1.256453125,-0.1088696679058484,-0.834091912990436,0.0133592477887868,-0.0914476811885833,0.0974759310483932,0.3936293721199035
1.27650390625,-0.0039433307982981,-0.5875626456219702,-0.7916986592233181,0.0111025497317314,0.0444083698093891,0.4954663813114166
1.296554931640625,-0.2752735696852207,-0.6769771052177995,-0.8096715382874011,-0.0117517253383994,0.0863319933414459,0.5180695056915283
1.316605224609375,-0.8407762861251831,-0.8755945745933801,-0.769014533728361,-0.0921427011489868,0.1915456056594848,0.4037173688411712
1.336656005859375,-1.1137507120225578,-0.8115358708545565,-0.8342951074123383,-0.2211167365312576,0.2193273603916168,0.2779598534107208
1.35670703125,-1.0142114565145224,-0.5566212716523558,-1.440783914235234,-0.2292263805866241,0.1581288576126098,0.1894728690385818
1.376757080078125,-0.3719306573530659,-0.2885078759200871,-2.168925754827261,-0.1727942824363708,0.1219810396432876,0.2163170278072357
1.39680810546875,0.1968415822768583,-0.1599384138260036,-2.3132325189530847,-0.122898019850254,0.1908491104841232,0.3349962532520294
1.416859130859375,0.3707597138775512,-0.1262983022917062,-2.029508516308665,-0.0520128980278968,0.0901675671339035,0.4406802654266357
1.436908935546875,0.2357009993620216,-0.2264491138268262,-1.7126865461826324,0.0263763293623924,-0.0528250150382518,0.4779547452926636
1.4569599609375,0.0730957044143229,-0.0305207374047487,-1.6148299830645323,0.0663564503192901,-0.0661782324314117,0.4267228245735168
1.477010986328125,0.2148334583023562,0.4453513924706727,-1.2835218069463967,0.0774515345692634,0.1072714328765869,0.3984511494636535
1.49706103515625,0.5372696150483564,0.8865409160215407,-0.6877928790688514,0.1032381877303123,0.2753971219062805,0.4171691238880157
1.517112060546875,0.9047621438235044,1.1181306076072155,0.1967103205800056,0.144987016916275,0.2816062867641449,0.4889090061187744
1.537162841796875,0.9902731662400066,1.2253253463044762,0.8904600622266531,0.226775050163269,0.1469886600971222,0.5618999004364014
1.557214111328125,1.093451362772286,1.2061383422102778,1.720796202880144,0.2240632027387619,-0.0746851190924644,0.6120766997337341
1.57726416015625,0.67522777733244,1.1246748416189103,2.0718793390482664,0.1170328259468078,-0.1458220034837722,0.5433771014213562
1.59731494140625,0.3190734023146331,0.9986027492985128,1.9598948818564412,-0.0587574765086174,-0.1465972363948822,0.4115955233573913
1.617365966796875,0.3826938607666641,0.9646317983746528,1.1692793416947125,-0.1155721098184585,-0.2136346995830536,0.2953507602214813
1.637416015625,0.4494367620881647,1.1552186676383018,0.0784054281949997,-0.0681760311126709,-0.2331198155879974,0.2232746332883834
1.657467041015625,0.625040800949186,1.1950162788890302,-0.3652057695448398,-0.0617887564003467,-0.1092314645648002,0.1758119761943817
1.67751806640625,0.90577745834589,1.1579543762125075,-0.4408417330265045,-0.0744323804974556,0.1258402466773986,0.1879241168498993
1.697568115234375,1.1495392337623982,1.1481224257670342,-0.2288935113042592,-0.0028197050560265,0.252538651227951,0.2494420707225799
1.717618896484375,1.233995851755142,0.968697148117423,0.6429536203891039,0.0171546917408704,0.1713116317987442,0.3176313936710357
1.737669921875,1.3611239559344948,0.835255038485676,1.4979992548853158,-0.0509933680295944,0.0258049983531236,0.4125353991985321
1.757719970703125,1.3572512061543762,0.7482339768324047,1.677114297541976,-0.133857786655426,-0.0893310010433197,0.5020418167114258
1.77777099609375,1.134425908847898,0.4883531335249543,1.4747878906458616,-0.2038329690694809,-0.1491006463766098,0.5239620208740234
1.79782177734375,1.0293598527424035,0.2762051514469087,1.0928186178267,-0.2618400156497955,-0.0902354568243026,0.5286544561386108
1.81787353515625,0.9842912422861904,0.0797640762623399,0.6750286745637655,-0.2876070439815521,-0.0522822514176368,0.5265960097312927
1.837923583984375,1.2088162561826408,-0.0361349970899522,0.2824854007601737,-0.2822299003601074,-0.1012938022613525,0.5828419923782349
1.857974365234375,1.519575419138372,-0.1881397683724761,0.0009486790269613,-0.2431318610906601,-0.1889411658048629,0.6805740594863892
1.878025390625,1.5015937722459434,-0.3283761412542313,-0.4222843320727348,-0.1130735054612159,-0.2603486180305481,0.7345824241638184
1.898075439453125,1.176842397360131,-0.5831380341127514,-0.5804454340279102,-0.0473375022411346,-0.2213903367519378,0.7533623576164246
1.918126220703125,1.0521448082633316,-0.7889839203719049,-0.2862117278069258,-0.062629610300064,-0.1837813705205917,0.7565231919288635
1.938177490234375,0.938066155271232,-0.816533240750432,-0.3584387596279382,0.001506793545559,-0.2212160378694534,0.7566297054290771
1.958228515625,0.8772868385292589,-0.7910597037326544,-0.4476391380816698,0.1133292019367218,-0.2557504773139953,0.7372679710388184
1.9782783203125,0.8368009527534246,-0.8514597388334572,-0.0374351199030876,0.1298542767763137,-0.2376184165477752,0.6942527294158936
1.998329345703125,0.8774745431210845,-0.8206332964804023,0.1190665244072675,0.1465709060430526,-0.2309459298849105,0.6540758013725281
2.01838037109375,0.855329858265072,-0.7099111873745918,-0.0569219106614589,0.165671020746231,-0.2294826507568359,0.6486289501190186
2.038430419921875,0.9775221134774388,-0.5507967302173375,-0.0005617255359888,0.1678418666124344,-0.3134926855564117,0.6578413248062134
2.0584814453125,0.7613485291451215,-0.4622320193186402,-0.0876046336948871,0.1730058640241623,-0.4188872575759887,0.6128547191619873
2.078532470703125,0.5248791757591068,-0.3687847240101546,-0.3831985223531722,0.116575002670288,-0.4510574340820312,0.4904965758323669
2.09858251953125,0.3515615673348307,-0.2476822367958724,-0.5425953035831451,-0.0520020127296447,-0.4879869222640991,0.3843201398849487
2.11863330078125,0.306088029339537,0.0961794967513531,-1.5868945129126308,-0.1042866334319114,-0.5576706528663635,0.2834548354148865
2.1386845703125,0.4698458553232252,0.2081782016642391,-2.514683896580338,-0.1133490800857544,-0.459038496017456,0.1812986582517624
2.158735595703125,1.0283692342698574,0.2401706190567463,-2.6482757899463176,-0.0995256230235099,-0.1285621672868728,0.1960231661796569
2.17878515625,1.8352730614095925,0.2968084520798176,-2.6007857244968413,0.0631987527012825,0.1251614242792129,0.3637444376945495
2.19883642578125,2.217160208903253,0.36757154882811,-1.6102812337189911,0.2884519696235657,0.1809621602296829,0.6101937294006348
2.218887451171875,2.123278248504549,0.3575042552568018,-0.041479426857829,0.4363569915294647,0.1042727828025817,0.8168174028396606
2.238937255859375,1.3516434492751954,0.3298126768633723,1.1670920607835054,0.4790308773517608,0.0986532792448997,0.8673537373542786
2.258988525390625,0.5936386045347899,0.2275711766593158,2.0063480054736136,0.4014706313610077,0.1482689380645752,0.7681761384010315
2.279039306640625,0.2757195598870515,0.1259774728395044,2.4479034397274253,0.2290615439414978,0.2078079432249069,0.6375330090522766
2.29908935546875,0.3898914441205561,0.2324278959754854,2.123839243388176,0.1334879398345947,0.1539618819952011,0.5823721885681152
2.319140625,0.507746108520031,0.5078055836223065,1.2903086906075476,0.1587359309196472,-0.0256099868565797,0.558509111404419
2.33919140625,0.5055541514337063,0.7910064391754568,0.656508098489046,0.1040920093655586,-0.1072895750403404,0.5595360994338989
2.359242431640625,0.4937023125331848,0.8968037321649491,0.16993921803236,-0.015009525232017,-0.0520553365349769,0.5448047518730164
2.379292724609375,0.677704396579042,1.0698428159087896,-0.9044014938175676,-0.0046258168295025,0.1384215056896209,0.5734862089157104
2.399343505859375,1.1214350559800863,1.3060599480994044,-1.48157945048213,0.0730246528983116,0.3524291217327118,0.7171400785446167
2.41939453125,1.4043711231172085,1.3402873580023646,-0.9210025000065564,0.1450839638710022,0.4434126317501068,0.91641104221344
2.4394443359375,1.1020483645953236,1.199553191666305,-0.0007025953114032,0.2054339498281479,0.3662930130958557,1.034774661064148
2.45949560546875,0.7516348713170736,1.0303766285695135,0.8861340157210826,0.1749134808778762,0.2881055772304535,1.1099151372909546
2.479546630859375,0.6220909381676465,0.905254165124148,1.39204004933238,0.079836182296276,0.2941656410694122,1.1700197458267212
2.499597412109375,0.430226450183615,0.7347390468999743,1.5427245317965743,-0.0290137957781553,0.3140316605567932,1.2044525146484375
2.5196474609375,0.2557466295795515,0.5391562690451741,1.534278190490603,-0.0901563689112663,0.2268654704093933,1.2327795028686523
2.539698486328125,0.3167920133791864,0.4428430629115551,1.2494114475518463,-0.0834278985857963,0.0830782204866409,1.281895637512207
2.559749267578125,0.4948922529701143,0.4579465240191668,0.8943453792273998,-0.0636579990386962,0.0328554511070251,1.3520816564559937
2.579799560546875,0.4897091512437909,0.3621940935734659,0.6227712485820055,-0.0992562100291252,0.0823293179273605,1.412480115890503
2.599850341796875,0.3008369769435375,0.2666672885771841,0.4005038774192333,-0.1472822278738021,0.2544019818305969,1.4582421779632568
2.6199013671875,0.2181710782924666,0.0772813195358961,-0.0239794260025024,-0.1118693128228187,0.3273349404335022,1.4435546398162842
2.639952392578125,0.0984752430057153,-0.1071414010748267,-0.0855401023805141,-0.0948168113827705,0.2959122657775879,1.3830363750457764
2.66000244140625,0.1082870639786124,-0.2228152873691171,0.1718739854872226,-0.0710919946432113,0.2622042596340179,1.3628318309783936
2.680053466796875,-0.0234382683305069,-0.2908189293414354,0.1936591163158416,-0.0470524430274963,0.248370736837387,1.334313154220581
2.7001044921875,-0.0339539997890591,-0.3593650806926191,0.4087772002458572,-0.0424174778163433,0.2535082399845123,1.296847581863403
2.720154541015625,0.0135101275015622,-0.4238128568142652,0.4361363318145275,-0.0162993129342794,0.2585979402065277,1.3041383028030396
2.74020556640625,0.0875524285836145,-0.3993451358381658,0.4126765457719564,0.0437022000551223,0.2454350590705871,1.3244258165359497
2.76025634765625,-0.0910722732728347,-0.436361080481112,0.5632382786393165,0.0649464279413223,0.2236292064189911,1.2589861154556274
2.7803076171875,-0.2020606320993974,-0.6785023420237004,0.9075012133985756,-0.0603460967540741,0.2006213366985321,1.1593490839004517
2.800357421875,-0.172711788018234,-0.7736990382827817,0.559084081569314,-0.1015252619981765,0.2112469226121902,1.1052827835083008
2.820408935546875,0.1114669361237436,-0.6768627581231296,-0.3826397194266319,0.0116611029952764,0.1450483798980713,1.1619373559951782
2.8404599609375,0.2221053124688565,-0.6588005933403969,-0.5025847802340984,0.0667923092842102,0.0851403176784515,1.2435157299041748
2.86051025390625,-0.0594389349836856,-0.8746342781938612,-0.6745756700992583,0.0730964839458465,0.0881193652749061,1.240235686302185
2.88056103515625,-0.3919366496799513,-1.0962377055551855,-0.9507330368816852,0.0746016353368759,0.1551915407180786,1.1790821552276611
2.900612060546875,-0.5529200790468604,-1.1322518527444452,-0.9750240130513906,0.0262240227311849,0.2753474116325378,1.08461332321167
2.920663330078125,-0.6801002787396311,-1.0217748044408856,-0.8384487199604511,-0.0794485658407211,0.360215276479721,0.9518727660179138
2.940712890625,-0.4826464463159441,-0.7803928368330001,-1.0169669657677411,-0.1079607158899307,0.2909752130508423,0.8385966420173645
2.960763916015625,0.1812268106462433,-0.3455897994488477,-1.2749345958650111,-0.1089651808142662,0.1926249414682388,0.8551669716835022
2.98081494140625,0.6128616297904401,0.0362532897073775,-1.6363894884437322,-0.082851842045784,0.1979004591703415,0.9245098829269408
3.000864990234375,0.6422326126381754,0.104129798168689,-1.840470045530796,-0.0232490710914134,0.2196354120969772,0.976771354675293
3.020916015625,0.3312149448767304,0.0110673374593257,-1.659413221156597,0.0464923977851867,0.187765285372734,0.9493842124938964
3.040967041015625,0.1318184904852881,-0.0339902401462197,-1.1958780102849007,0.0788719579577446,0.1956824362277984,0.8781353235244751
3.06101708984375,0.2392121858207508,0.2823799676243215,-0.7817652942299842,0.1158168166875839,0.2744351923465729,0.8191744089126587
3.08106787109375,0.3431251263683662,0.5779221991606056,-0.1881809771656989,0.1342230141162872,0.3529708683490753,0.7766036987304688
3.101119140625,0.4718142693193629,0.8626871622253209,0.7000941422373056,0.1282127648591995,0.3909983336925506,0.7911195755004883
3.121170166015625,0.6006134119834751,1.0486717253252864,1.1779068847864866,0.1018136963248252,0.3542541265487671,0.8121529221534729
3.141219970703125,0.5019531312670559,1.1374833967223763,1.7700708136588337,0.0204162113368511,0.3297503292560577,0.7883890271186829
3.16127099609375,0.469282266623713,1.1284595477893948,2.1020868457853794,-0.1020848974585533,0.2184702455997467,0.7478072643280029
3.181322265625,0.5263875344954431,1.0921301971711217,1.8619670070677996,-0.2151240706443786,0.0353201888501644,0.7142375111579895
3.201371826171875,0.5496145346954464,1.092664304047823,1.324329618152976,-0.3083933293819427,-0.1167233064770698,0.6783139109611511
3.2214228515625,0.5451964259922504,1.167597964479029,0.4169704435735941,-0.3275619447231293,-0.2181359529495239,0.6488750576972961
3.241473876953125,0.8250529395535587,1.0255981621213257,-0.7320090374141931,-0.2494779378175735,-0.2365199327468872,0.6573747396469116
3.26152490234375,0.6558123713098466,1.0429405612621456,-1.1219476816773415,-0.2376231253147125,-0.2439302206039428,0.5782380700111389
3.281574951171875,1.201823913077265,0.3597894801171496,-0.7563648955136537,-0.1850180327892303,0.1456098556518554,0.6531770825386047
3.3016259765625,0.50997076229956,0.7422955997593701,-0.0949725321143865,-0.1380077302455902,0.2581010162830353,0.659637451171875
3.321677001953125,0.35661362656001,0.4858658102212473,1.0895242524564266,-0.1585800796747207,0.2020634710788726,0.6500540375709534
3.341726806640625,0.094543483914202,0.1778504660809412,1.4012375012665983,-0.2017665058374405,0.074089303612709,0.5531781911849976
3.361778076171875,0.141212250442896,0.0028671529341489,1.7418103493362664,-0.3678230941295624,0.0375864319503307,0.4899114966392517
3.3818291015625,0.3298518398299813,-0.0907304740978404,1.5391840827107428,-0.4721837341785431,0.0308436509221792,0.466875284910202
3.4018798828125,0.3560807252597063,-0.2794811774428933,0.7527794382423162,-0.4375044703483581,-0.0613512396812438,0.4337311387062073
3.42193017578125,0.2664650805359706,-0.5231932319661602,0.3034311581552028,-0.3790227472782135,-0.1481567472219467,0.3774896562099457
3.441981201171875,0.1394749417888932,-0.7865902301684021,0.0413087464660406,-0.3793384134769439,-0.1349659115076065,0.3062900900840759
3.462031982421875,0.4614089394327252,-0.8374132394328713,-0.1198626432210206,-0.381556749343872,-0.1061808541417121,0.3275529444217682
3.482082275390625,0.5341414730904623,-0.9052353142932056,-0.4104880958169698,-0.297205775976181,-0.1442457139492035,0.3367298245429992
3.50213330078125,0.1560043257800862,-1.157521391622722,-0.4203314444392919,-0.2255123257637024,-0.1262969076633453,0.2557829916477203
3.52218408203125,-0.1195617788446135,-1.3899436615750194,-0.1485889714896678,-0.1758227497339248,-0.106204941868782,0.1469821333885193
3.542234130859375,0.1020458497677929,-1.3622069288656116,-0.2230044532656669,-0.1085550636053085,-0.1643258333206176,0.1045305952429771
3.562284912109375,0.454978906385228,-1.3090212821230292,-0.150295190885663,-0.0428685322403907,-0.2926791608333587,0.137596994638443
3.5823359375,0.3228225257150828,-1.3977712864607572,-0.2362310145854949,0.0044677378609776,-0.4206002950668335,0.1086845472455024
3.602386962890625,0.1112257112463936,-1.461946529251337,-0.5003285257399082,0.0154282357543706,-0.4377254545688629,0.025497717782855
3.62243701171875,-0.2240328829979523,-1.2717258629515766,-0.8619546832323074,0.012454017996788,-0.3358025550842285,-0.1087903156876564
3.642488037109375,-0.3511220068737864,-1.1132216466471552,-0.9370996483266352,-0.0350035764276981,-0.2384883016347885,-0.2575299441814422
3.6625390625,-0.0795578496331348,-0.9862106660414488,-1.006996775895357,-0.0744528397917747,-0.1406959891319275,-0.3345491886138916
3.682589111328125,0.2255820486687123,-0.7186942863542586,-1.223376842585206,-0.0398978143930435,-0.072501003742218,-0.3512885570526123
3.70264013671875,0.2620456566585227,-0.4969441439986228,-1.0777858838677403,-0.0470754913985729,-0.1897715330123901,-0.3390436470508575
3.72269091796875,0.1590505981408059,-0.549066472358629,-1.0208721565127372,-0.1188427805900573,-0.3745466470718384,-0.3575769960880279
3.742741943359375,-0.0665578270781785,-0.8361695229820907,-1.8969132327646017,-0.1058733016252517,-0.4131085872650146,-0.4519872367382049
3.762792236328125,0.036239261182025,-0.9323582259532064,-2.795216994228959,-0.0009582284837961,-0.2902124226093292,-0.5111566781997681
3.782843017578125,0.454703377379477,-0.8345715132009237,-2.9236072272986173,0.1492180675268173,-0.0866204351186752,-0.5349010229110718
3.80289404296875,0.6560053365986794,-0.6849008839543909,-2.23323309956491,0.2836950719356537,0.1812509894371032,-0.5532357096672058
3.82294384765625,1.017227151073888,-0.3486724217645823,-1.2004086394518614,0.4130668640136719,0.3558889329433441,-0.5057477355003357
3.842994873046875,1.1789234414178875,0.1302867691396735,-0.1496165609717369,0.5614697933197021,0.3509349524974823,-0.3995409309864044
3.863045654296875,0.8089440277304499,0.4750811986934393,0.7213502807557582,0.6446514129638672,0.2987124025821686,-0.3802652060985565
3.883095703125,0.3468720578117296,0.809677383506298,1.6565888113856315,0.5977420806884766,0.2751282453536987,-0.4009725153446197
3.903146728515625,-0.0316931787176057,1.1202120900563894,1.9569611664921045,0.4684800505638122,0.1800624132156372,-0.4759634435176849
3.92319775390625,-0.2914524780046195,1.3342422326192258,2.0003040491342543,0.2750687003135681,0.0549174658954143,-0.5783467888832092
3.943248779296875,-0.2110509440889582,1.5941297248631714,1.1561708537966011,0.1847777366638183,0.0685298442840576,-0.6331372857093811
3.963298828125,0.1259188014548271,1.802643003700673,0.2222650330752134,0.1770718097686767,0.2311642318964004,-0.5763602256774902
3.983349609375,0.6930621977739035,1.8496495234169064,0.120734749880433,0.1049055680632591,0.4026100039482116,-0.4092051982879638
4.00340087890625,1.0198068653687835,1.6098090861625969,0.3061608753800392,0.1006449162960052,0.3764468431472778,-0.1608224511146545
4.023450927734375,0.9436798304345458,1.2787722743317484,0.1339735861599445,0.2423332631587982,0.1933845579624176,0.0949316099286079
4.043501708984375,0.5372102860765532,0.7286086543861776,0.6574982785701752,0.2552951872348785,0.1106886193156242,0.2476327568292617
4.063552978515625,-0.0642685105646029,0.1524295725658536,1.1776713224649429,0.1909065395593643,0.1014774814248085,0.2777539193630218
4.083602783203125,-0.3302823036691173,-0.2266540618143975,1.1437030018895864,0.1292525231838226,0.1110883653163909,0.2745495736598968
4.10365380859375,-0.3375901059318333,-0.3368110113181173,1.0752473053008318,0.0855728983879089,0.1066876202821731,0.3124715089797973
4.123705078125,-0.244867252440378,-0.4563949106629937,0.8994944325536489,0.0844487771391868,-0.0121860299259424,0.3567809164524078
4.143755859375,-0.417374165536277,-0.4990979610316455,0.749907682198286,0.1085482537746429,-0.0873774588108062,0.3538554310798645
4.1638056640625,-0.5752113692993298,-0.4659611228443682,0.8900000434994697,0.0291649438440799,-0.0565025359392166,0.2928251326084137
4.18385693359375,-0.6133823657289147,-0.3820170574836433,1.0748784719884394,-0.0887928307056427,0.0098578007891774,0.2272812575101852
4.20390771484375,-0.4325085697714239,-0.1985901429772376,0.6709586486458778,-0.0490971989929676,0.031847707927227,0.1960994899272918
4.223957763671875,-0.3508587528277188,-0.0986051895283162,0.3562789512455463,-0.0001226300373673,0.0907173827290535,0.1777512729167938
4.2440087890625,-0.2334886936074122,-0.3060547846570611,1.0625222637623548,-0.1069613546133041,0.1347129791975021,0.1309363096952438
4.264059814453125,-0.0672567691277712,-0.3812940039061009,1.1568600051045417,-0.1654541194438934,0.1337775588035583,0.1092992648482322
4.28411083984375,0.2348857739889994,-0.4727004410367458,0.9147533764839172,-0.1730426996946334,0.1013618856668472,0.141840398311615
4.304160888671875,0.4793787862895056,-0.6535686840362847,0.6448270130455493,-0.147262305021286,0.0649580061435699,0.2090583592653274
4.3242119140625,0.3423477853203192,-0.9865927972268312,0.3880377790778875,-0.1437680423259735,0.1178443804383277,0.2353627383708953
4.344262939453125,0.2430246933136135,-1.307468938114494,0.3751911569863557,-0.1754254251718521,0.1534040421247482,0.2377136647701263
4.364312744140625,0.2060377921020612,-1.5417669388107955,0.0779483320772647,-0.1550630331039428,0.1372882276773452,0.2525308132171631
4.384364013671875,0.1333576279523782,-1.5622022624656555,-0.3060457245677709,-0.0844443887472152,0.1418973207473755,0.2689298987388611
4.404414794921875,0.1727270951852202,-1.6171416210077705,-0.6040010816603899,-0.0387871377170085,0.1897359192371368,0.297069638967514
4.424464599609375,0.115285946422629,-1.6359823689475654,-0.7855904054760933,-0.0002415275666862,0.2492141723632812,0.3324541747570038
4.444515869140625,-0.0166622713895514,-1.5688731185317035,-1.1533820998609066,0.1513571888208389,0.2525160014629364,0.3632702529430389
4.464566650390625,-0.1468685226389207,-1.4654384630203243,-0.9403817387372256,0.2473612874746322,0.2716751992702484,0.3856420814990997
4.48461669921875,-0.3572785932747647,-1.5384556223057209,-0.2332330018132924,0.2337463349103927,0.3318097591400146,0.3839520812034607
4.504667724609375,-0.6098620826482772,-1.793709609530121,0.0227706347346305,0.1450641900300979,0.3014613091945648,0.3479396402835846
4.52471875,-1.250702656406164,-1.9348887431547044,-0.5716209070593118,0.0483900532126426,0.2298900336027145,0.141370341181755
4.544769775390625,-1.9473546953655776,-1.3661568355351683,-1.4748627094477411,-0.0058458838611841,0.2239474207162857,-0.1612247824668884
4.56481982421875,-0.8907249237079172,-0.5419473610684276,-1.8502485122233627,-0.0840345323085784,0.1962817311286926,-0.1872008740901947
4.584870849609375,-0.0688620488999411,0.1271395754214376,-2.732257556968927,0.0417502522468566,0.1200137585401535,-0.0652744323015213
4.604921875,-0.0359867842582985,0.6617510406438261,-3.143100457572937,0.2425404042005539,0.1878418773412704,0.0188816860318183
4.624971923828125,-0.1101281618006527,0.9358052246019244,-2.085250277274847,0.297591894865036,0.3677778840065002,0.0820012837648391
4.64502294921875,-0.097665205264464,1.1558317580353468,-0.7559954776793718,0.2976296246051788,0.4123965799808502,0.1118562147021293
4.665073974609375,-0.1422669288612902,1.4349214519426226,0.3992600148379802,0.2782067060470581,0.3779855370521545,0.146368607878685
4.6851240234375,-0.0884467836074531,1.74988873411268,1.1292378386855124,0.2683040499687195,0.3044300675392151,0.207179456949234
4.705175048828125,-0.0962393371798098,1.887565997096151,1.5753987209081648,0.2437987327575683,0.2311252057552337,0.2495977580547332
4.725225830078125,-0.2856223836116492,1.838083588785678,1.9885107354879377,0.1452629417181015,0.1358560174703598,0.2361875474452972
4.74527685546875,-0.3201918118853122,1.8748843563079836,2.072542186871171,0.0479800216853618,0.0068951589055359,0.2241016030311584
4.765326904296875,-0.3809744165629148,1.894079762904346,1.83132461604476,-0.0456103831529617,-0.1681296527385711,0.1753468513488769
4.785377685546875,-0.5650984464880079,1.891287501837313,1.4583978968590496,-0.1627836376428604,-0.2865166962146759,0.0755617022514343
4.805428955078125,-0.618170695983991,1.8460954841971395,0.6464625052928924,-0.2359098047018051,-0.3447682857513428,-0.0174598582088947
4.825478759765625,-0.3741894325979054,1.6183853374585508,-0.387093191704154,-0.2320582866668701,-0.3230694234371185,-0.0738741606473922
4.84552978515625,-0.1453865952517837,1.3759607289299367,-0.9738643216222524,-0.1982116997241974,-0.0670606791973114,-0.0810640528798103
4.865580810546875,0.1067296784687787,1.2787575151540338,-0.863275702702999,-0.1236087381839752,0.2028410732746124,-0.0289823189377784
4.885630859375,0.2219116165276616,0.9788551156468688,0.1484036780506372,-0.0955800488591194,0.2029917687177658,0.021636601537466
4.905681884765625,0.1715349627912044,0.6490280449319631,1.2837597073554992,-0.154602825641632,0.0355691611766815,0.053770013153553
4.92573291015625,0.1735702680110931,0.4156885140042752,1.6839140406847,-0.2104711383581161,-0.1723523885011673,0.0897679254412651
4.94578369140625,-0.0929209333468228,0.17411679597795,1.2516735472649334,-0.2318516820669174,-0.2404274195432663,0.051868699491024
4.965833984375,-0.1484224558163434,-0.0730162094373255,1.0129542229950428,-0.3117952942848205,-0.1832437515258789,0.0110493525862693
4.985884765625,0.042745793531835,-0.3145801825486123,0.556570052921772,-0.3022191822528839,-0.1934085190296173,0.004108166322112
5.005935791015625,0.1156102099409326,-0.4616996660076081,0.0125888479381799,-0.2164254039525985,-0.2534309029579162,0.0019789459183812
5.025986083984375,0.0517565637875348,-0.6813946293991059,-0.1165378827124834,-0.1715426445007324,-0.2624399363994598,-0.0286687072366476
5.046036865234375,-0.0253609800213947,-0.8709929990820586,-0.2156166811019182,-0.1323073208332061,-0.2134382128715515,-0.0616956390440464
5.066087890625,-0.1010246352275833,-1.0435291017398238,-0.3685620942354202,-0.0596240386366844,-0.1924461424350738,-0.09559877961874
5.086137939453125,-0.1069236666709184,-1.2285805487081407,-0.0464624759674072,-0.0296341925859451,-0.229533165693283,-0.145158588886261
5.106188720703125,-0.1533465412802994,-1.316171300008148,0.1277308923780918,0.0043524289503693,-0.2529068291187286,-0.2081313878297805
5.12623974609375,-0.1983587088415399,-1.363773301399499,-0.0065688569962978,0.0354188382625579,-0.2251237034797668,-0.2734377980232239
5.146290771484375,-0.029816589457076,-1.3564156321130691,0.0301940627336502,0.0300076212733984,-0.2299827635288238,-0.3073272705078125
5.1663408203125,0.131606692631822,-1.3384927296705542,-0.2889391069442034,0.0750332772731781,-0.2917258441448211,-0.3202653229236603
5.186391845703125,0.2410272906850092,-1.1967375497236847,-0.6277373465567827,0.1109180003404617,-0.3160264492034912,-0.3097953200340271
5.20644287109375,0.2703661065625026,-1.0526676630936562,-0.7323743635952472,0.1004594340920448,-0.2852748334407806,-0.296630710363388
5.226492919921875,0.2324125888084992,-0.930491482233256,-0.9355629402786492,0.112609252333641,-0.3018731772899627,-0.3135287165641784
5.246543701171875,0.188965990063548,-0.8644749954901635,-0.9423480703741312,0.1209323853254318,-0.3348287343978882,-0.3347591161727905
5.266594970703125,0.2427031697416677,-0.7970403125122189,-1.0705535945266484,0.1730434596538543,-0.3104309439659118,-0.3470948338508606
5.28664501953125,0.3004117190024815,-0.7251482117339968,-0.9666109894931316,0.1994946002960205,-0.2284985333681106,-0.3536220490932464
5.30669580078125,0.3644793549664318,-0.7852874770067632,-0.3213917622596025,0.1862761974334716,-0.1874575167894363,-0.3577416241168976
5.326746826171875,0.4345622874308377,-0.7714513324212282,0.1853980684489011,0.1362586915493011,-0.1629380583763122,-0.3813966810703277
5.346796875,0.1499020268496126,-0.7341920805417,0.4065922574222088,0.0472456105053424,-0.1910982280969619,-0.4491623938083648
5.366847900390625,0.106223117186129,-0.7032493183325975,-0.0702209526956081,0.0105128781870007,-0.2864854037761688,-0.5305607914924622
5.38689892578125,0.2430119068972766,-0.6457041612062603,-0.4573620751947164,-0.0599839054048061,-0.2667565047740936,-0.6090274453163147
5.4069501953125,0.5573189350603148,-0.5707418592024595,-0.8088795111268758,-0.1236628741025924,-0.2334322929382324,-0.6547039747238159
5.426999755859375,0.7942064042605459,-0.4426197024844586,-1.66231712590456,-0.0707267150282859,-0.1846219301223755,-0.6405388116836548
5.44705078125,1.17176684766151,-0.2211636477045714,-2.332720478755236,0.0501383356750011,-0.0985722839832305,-0.5593626499176025
5.467101806640625,1.4125415700912474,0.1897198041055351,-2.369794364130497,0.2520721554756164,0.1134736910462379,-0.4188776016235351
5.48715185546875,1.2070597679041326,0.5698351196210831,-1.4194640628308055,0.3870425820350647,0.2745353579521179,-0.3093312382698059
5.50720263671875,0.8576343358151615,0.742595678684488,0.2163900035619735,0.3982630372047424,0.2929708659648895,-0.2274837642908096
5.52725390625,0.5799810313865542,1.0553350556720047,1.0757663607388734,0.4349646270275116,0.184356153011322,-0.135872945189476
5.547303955078125,0.0357219045107252,1.2962030093431471,1.7694377764523028,0.3917829990386963,0.062047105282545,-0.1233717501163482
5.567354736328125,-0.5779171941919252,1.4393443829514083,2.180199428513646,0.2493470311164856,-0.001477803569287,-0.1894919127225875
5.587406005859375,-0.8268021943736821,1.5594576399326323,2.128621216967702,0.0663140937685966,0.0349184423685073,-0.2931085526943207
5.6074560546875,-0.8270550731562077,1.5845570098757742,1.6499100642740725,-0.0701015666127204,0.1265115886926651,-0.3776916563510895
5.6275068359375,-0.1973081403426826,1.5802803554698823,1.1092448519706726,-0.1601646542549133,0.1675551831722259,-0.3256387114524841
5.64755810546875,0.3010272022860124,1.352294898921251,0.709272889471054,-0.1941507309675216,0.1627939641475677,-0.2056666165590286
5.667609130859375,0.6224966694243252,0.9432607282396406,0.3877285669982433,-0.1493247598409652,0.0711434558033943,-0.0232347324490547
5.68765869140625,0.8875202093824743,0.5385672171108424,0.3240069131940603,-0.0796203017234802,-0.0118129681795835,0.1616997867822647
5.7077099609375,0.4709270381560549,0.0991972371373325,0.5923416235268115,-0.0880567282438278,0.0390171259641647,0.2368960380554199
5.7277607421875,0.0520360017834231,-0.3417008291862904,0.9631056117206812,-0.1611908227205276,0.0921422392129898,0.2349727004766464
5.747810791015625,0.0495852476304396,-0.5766134546495973,1.0911790339261294,-0.2009543478488922,0.0500442422926425,0.2768222689628601
5.767862060546875,0.1266469695989042,-0.6782837308369577,0.7650929763704538,-0.1440780758857727,-0.0807209759950637,0.3348228335380554
5.787912841796875,0.101086229221709,-0.6777712512701749,0.5857131452977657,-0.1217937245965004,-0.1333499252796173,0.4157711267471313
5.80796337890625,0.0843434764744713,-0.6072978581834584,0.5642413182020187,-0.1299104541540146,-0.1529594510793686,0.473765105009079
5.82801416015625,-0.1288361502062529,-0.5718932211946696,0.4831494274020195,-0.170490950345993,-0.1323978900909423,0.4637782871723175
5.8480654296875,-0.2377290345909073,-0.4997269065849483,0.3421154013365507,-0.1942328214645385,-0.0601053833961486,0.430474191904068
5.868116455078125,-0.0734398416768759,-0.3573603167414665,-0.0223205528795719,-0.1454116702079773,0.0368675179779529,0.4487756192684173
5.888166015625,0.0364477710998617,-0.2988279752086847,0.0061082537472248,-0.0873056054115295,0.0882195755839347,0.470208078622818
5.90821728515625,-0.0263342820329591,-0.4543604091607034,0.573424157088995,-0.1091767773032188,0.1085904240608215,0.4689805805683136
5.928268310546875,-0.1054839161913841,-0.669718000935018,0.8851490963369607,-0.1109155043959617,0.1101720333099365,0.4359509348869324
5.948318115234375,0.006602540070191,-0.860774825797975,0.9513479539096354,-0.089859202504158,0.0978636518120765,0.4272799491882324
5.968369384765625,0.1168180513607338,-0.99463559923321,0.9346803122252224,-0.0656873434782028,0.102110207080841,0.440294086933136
5.988420166015625,0.0497142443049699,-1.1672699015684425,0.8384773615330458,-0.0521990284323692,0.119288332760334,0.4286103248596191
6.00847119140625,-0.0471763233251869,-1.3457999839439987,0.863020266637206,-0.0877133309841156,0.1404223293066024,0.3817626237869262
6.028521484375,-0.0826112458543851,-1.4566171509221195,0.5818365961253643,-0.1039565727114677,0.1651826649904251,0.3532312214374542
6.048572265625,0.0713160544559359,-1.427015939515084,-0.0243014975637197,-0.0781836360692977,0.125412181019783,0.3695394098758697
6.068623291015625,0.017869236026518,-1.410256381763518,-0.5793968017578125,-0.0503283031284809,0.0936345532536506,0.3805270791053772
6.088673583984375,-0.2182660630995407,-1.3725192101739343,-1.2113655022740364,-0.0127514218911528,0.1014064997434616,0.3494304120540619
6.108724365234375,-0.362333100185357,-1.4259604391127825,-1.5530454348027705,0.0221864581108093,0.1913518160581588,0.3138478100299835
6.128775390625,-0.3488379145245999,-1.5024286156348885,-1.7808254319071768,0.0854089632630348,0.2936080694198608,0.3080089688301086
6.148826416015625,-0.3767491635506972,-1.6349654469899833,-1.5290490576654672,0.0758550316095352,0.3303954005241394,0.3319897949695587
6.168876220703125,-0.9112411305792628,-2.005620860242844,-1.5046055212825535,0.0140743386000394,0.2578194737434387,0.20731782913208
6.18892724609375,-1.4362506547197698,-1.947405402639508,-2.373656300255656,0.0232145655900239,0.3147569596767425,-0.0494849234819412
6.20897802734375,-0.7670517092227935,-1.0278262134343386,-2.5392010827213523,0.0060725808143615,0.4727414846420288,-0.1356086730957031
6.2290283203125,0.0917434870652854,-0.04747128768377,-2.4706857648998497,0.0676142945885658,0.5382607579231262,-0.0081013310700654
6.249079345703125,0.4450769229108467,0.4936102503355592,-2.35768423961997,0.2518107891082763,0.3820465505123138,0.0991649180650711
6.269130126953125,0.4781616290520876,0.9044388301532716,-1.4694126273483037,0.3441398441791534,0.2728843688964844,0.1885894238948822
6.28918115234375,0.4565526585079729,1.2502803393408657,-0.3484013497382402,0.3272791504859924,0.3173377811908722,0.2384451031684875
6.309231201171875,0.3103787853360176,1.606029421493411,0.3509779222279787,0.3249037265777588,0.3592114150524139,0.3044977784156799
6.3292822265625,0.3511480180978775,1.8249486512720583,0.9582540800362824,0.3296242952346802,0.2567840814590454,0.400750458240509
6.349333251953125,0.1894092037864029,1.8341981256544588,1.5819751766890289,0.2965556383132934,0.1072450652718544,0.4505836963653564
6.36938330078125,-0.0413018052686005,1.6304975077956914,1.881582392641902,0.2181136757135391,-0.021478908136487,0.4261588752269745
6.389434326171875,-0.2030376969706267,1.467894039478898,1.8604022419691084,0.1040024831891059,-0.0910151749849319,0.3709322512149811
6.4094853515625,-0.0702946755189448,1.4596324070900677,1.5111989281982183,0.0188538692891597,-0.1872680783271789,0.3565709590911865
6.429536376953125,0.0092206136140972,1.2859240457825365,1.0467156228214505,-0.0145917516201734,-0.3088701665401459,0.3310811519622803
6.449586181640625,0.21540106558986,1.1383714316032827,0.4468459418773651,-0.0306529998779296,-0.3860535025596618,0.3213914930820465
6.469636962890625,0.408788561890088,1.0609047455631195,-0.2252139460086822,-0.0255149099975824,-0.4244986772537231,0.3293415307998657
6.489688232421875,0.3527351411588489,0.9755144269168377,-0.8181511973410844,0.0108656156808137,-0.3679237365722656,0.324198842048645
6.5097392578125,0.095587522207573,0.9477471529386936,-0.7544938409447669,0.0239459313452243,-0.1513686031103134,0.2839044630527496
6.5297890625,-0.1082983525576069,1.0161765460424124,-0.4635129990398883,0.0640691667795181,0.0613100752234458,0.2133663445711136
6.54984033203125,-0.1420809047698974,0.9180955995839089,0.5205617509514093,-0.0151338437572121,0.1652040779590606,0.123393639922142
6.569891357421875,0.0234295005021616,0.77325480164662,1.5693880823165178,-0.1550879776477813,0.1492972820997238,0.074543185532093
6.589941162109375,0.4968525201924145,0.7043037958215922,1.6504174292743206,-0.1641260534524917,-0.0052373954094946,0.1169866323471069
6.609992431640625,0.6236433552414179,0.6247391145888715,1.3716022414594888,-0.1509782820940017,-0.0690637826919555,0.1659587025642395
6.630043212890625,0.4106758004087955,0.3569027091670781,1.565325655183196,-0.246156096458435,-0.0571835562586784,0.1520691514015197
6.65009423828125,0.2393640884468331,0.0813574098683893,1.3337597097992897,-0.2843726575374603,-0.0875980630517005,0.1167640686035156
6.670144287109375,0.4560138389235362,-0.0928827202282845,0.8087205211728811,-0.2591870129108429,-0.1312663108110427,0.1403902173042297
6.6901953125,0.5044606571085751,-0.3122859341315925,0.4679050965189933,-0.2390068769454956,-0.1386443972587585,0.151041492819786
6.710246337890625,0.4466714620932936,-0.5812614265859126,0.3520283080637454,-0.2120080292224884,-0.1490581035614013,0.1729281842708587
6.73029736328125,0.3346365898884832,-0.8297603865921497,-0.0080693246871232,-0.104454718530178,-0.213342398405075,0.1771913915872573
6.750347412109375,0.2741720564504153,-1.024479533354938,0.094154785990715,-0.0596661493182182,-0.2295050621032714,0.1636819243431091
6.7703984375,0.1132901329629123,-1.1953873772237449,0.3509709079653024,-0.0633372962474823,-0.2032218277454376,0.1178949624300003
6.790449462890625,0.128048799220845,-1.292630119292438,0.0859668033599853,-0.0038304785266518,-0.2189533710479736,0.0840852558612823
6.810499267578125,0.2207076840979978,-1.344037065924704,-0.1443552794426679,0.060948297381401,-0.2622666358947754,0.0737215504050254
6.83055029296875,0.2642628577839583,-1.2495960103385149,0.0107043493658304,0.0312370099127292,-0.2926560938358307,0.0590892694890499
6.85060107421875,0.1528635800689458,-1.155874793459475,-0.1030219830572605,0.0024387037847191,-0.3542638421058655,0.0128293391317129
6.870652099609375,0.2333540161107666,-0.986712916475162,-0.5040560218304395,-0.0050163669511675,-0.4248667657375335,-0.0134108979254961
6.890702392578125,0.4814443770498037,-0.8349689880859106,-1.1181757619231938,0.0281529203057289,-0.4575757682323456,0.0046387440524995
6.910753173828125,0.7333499306291341,-0.7033940605655312,-1.7005489491432904,0.1082928329706192,-0.4089159071445465,0.0503236129879951
6.93080419921875,0.5614965495385229,-0.6465864969987422,-1.4670575886547566,0.0711983740329742,-0.3369331657886505,0.0395482927560806
6.95085546875,0.4064033107213676,-0.583029751432687,-1.0665624790638684,-0.0371174402534961,-0.3795388638973236,0.0044595305807888
6.9709052734375,0.4535092722240835,-0.4736077651400119,-1.402825062718987,-0.0566889643669128,-0.4574895799160003,-0.0222424753010272
6.990956298828125,0.6041036652520299,-0.3912410320986062,-1.7749416345655915,-0.0216575786471366,-0.3746512830257416,-0.0322578996419906
7.01100732421875,0.8454041651215404,-0.40287396755144,-1.6508242565095423,-0.0165112018585205,-0.1938965022563934,-0.0206155162304639
7.031058349609375,1.2732904819197952,-0.3947596346788108,-1.2150988435834646,0.014771718531847,-0.119626984000206,0.044893953949213
7.0511083984375,1.717934529838711,-0.1716614387150853,-0.8290408401459455,0.0943615287542343,-0.1433253586292266,0.1974619328975677
7.071159423828125,1.6841721070989966,0.1847130087941884,-0.4669967495024203,0.1976144760847091,-0.2016483694314956,0.3220909237861633
7.09121044921875,1.2672215372696518,0.3433830101195723,-0.2230886244177818,0.2828284204006195,-0.1400798559188842,0.3575416505336761
7.111261474609375,0.954022653011605,0.4455942613158374,0.2341249822169542,0.2978131771087646,0.0664682835340499,0.3281137645244598
7.131311279296875,0.9206436766315252,0.5877333990789949,0.9251432530730962,0.2690508961677551,0.2149913758039474,0.3286038935184479
7.1513623046875,0.9933111456964164,0.8411384705010801,1.2560358341276645,0.2714658081531524,0.166324645280838,0.3710967600345611
7.1714130859375,0.7901552291736006,1.0331095606647431,1.4825842436105012,0.2449115067720413,0.0575876906514167,0.4029981791973114
7.191464111328125,0.4150261045727879,1.0906200848691163,1.491037599179149,0.1252735406160354,0.0472873300313949,0.3690851926803589
7.211514404296875,0.1849417029835283,1.119277147293836,1.1517618051826952,-0.0009866090258583,0.0953596457839012,0.3223890364170074
7.231565185546875,0.3795639652431011,1.2029167498152702,0.4830220016300678,-0.0513800755143165,0.1330006867647171,0.3598283231258392
7.2516162109375,0.7853717942893504,1.2218930337682363,-0.0249421335548162,-0.063403382897377,0.1457784920930862,0.4816164374351501
7.271667236328125,0.9639734075311572,1.0850135700989514,-0.379198639062047,-0.0285959299653768,0.1639273166656494,0.628372848033905
7.29171728515625,1.0066413865864277,0.8748189871110021,-0.4577420144230127,0.0270116999745368,0.2145939916372299,0.7610652446746826
7.311768310546875,0.9008569530785084,0.5847583287909627,-0.0741460171848535,0.0280519407242536,0.2671099007129669,0.861250638961792
7.331819091796875,0.843842395697534,0.3805469118658453,0.4019605059683322,0.0066187353804707,0.2904379665851593,0.9482285976409912
7.351870361328125,0.779012049999088,0.280260491252318,0.64085343323946,-0.0097373062744736,0.2477262616157531,1.0497684478759766
7.37192041015625,0.690427026964724,0.2122581644542515,0.8030757932841778,-0.0069237044081091,0.1541898697614669,1.1435871124267578
7.39197119140625,0.376021652993746,0.0723253776289522,0.8423141632169484,-0.0304034650325775,0.110536128282547,1.1602164506912231
7.4120224609375,0.219008150171116,-0.0108946112409234,0.8465069387316704,-0.0869562774896621,0.1192367002367973,1.1755053997039795
7.432073486328125,0.4118347977181896,-0.0285668999232351,0.6071364570766687,-0.0989451333880424,0.1036255657672882,1.2462769746780396
7.452123046875,0.5683206234049052,0.1167529137026518,0.3139110511153936,-0.0595812126994133,0.0665909796953201,1.3503069877624512
7.47217431640625,0.4141872425958514,0.1446119576174765,0.5191080450117588,-0.0806284099817276,0.0645320117473602,1.4002114534378052
7.49222509765625,0.1628817738015204,0.0196092480942606,0.5363941108554602,-0.1383083313703537,0.119459256529808,1.392383337020874
7.512276123046875,0.2382712151762098,-0.0464728512309491,0.3181985191762447,-0.1433419436216354,0.131320908665657,1.406508207321167
7.532326416015625,0.471080292489007,0.0024411826070398,0.3025187194854021,-0.1578809767961502,0.1218458265066146,1.4512889385223389
7.552377197265625,0.4988241125263273,-0.0852181769497692,0.3501028929591179,-0.1547093689441681,0.1248087212443351,1.4667960405349731
7.57242822265625,0.6147180713120848,-0.1303283615253865,0.1426362005650997,-0.151574969291687,0.1777962148189544,1.5065726041793823
7.592479248046875,0.8036790198743343,-0.1693061808258295,0.1468599557399749,-0.1467037051916122,0.2005778700113296,1.5704020261764526
7.612529296875,0.8633221721932292,-0.1446566735420376,0.188494280898571,-0.1206187233328819,0.174198105931282,1.6458066701889038
7.632580322265625,0.6887820362366736,-0.1615900534905493,0.3437514781057834,-0.1135740131139755,0.0976034998893737,1.6902382373809814
7.65263134765625,0.5857134375587105,-0.1449224848713725,0.6097054307818413,-0.154884323477745,0.0581871829926967,1.718610167503357
7.67268212890625,0.6503786558233201,-0.1463552941534668,0.1700970389425754,-0.0946316644549369,0.0222661532461643,1.7609899044036863
7.692732421875,0.7677843343462795,-0.1433609346430748,-0.3352951999276876,0.0010775527916848,0.0312938764691352,1.823108196258545
7.712783203125,0.6727111914016306,-0.224072959280014,-0.168665544834733,0.0058035422116518,0.1100306585431099,1.8280143737792969
7.732834228515625,0.4361723164433613,-0.2130459538310766,0.0391430928647518,-0.031804334372282,0.2383130043745041,1.7750732898712158
7.752885498046875,0.3933508273268118,-0.0533803655970841,-0.0358364525347948,-0.0939917564392089,0.3222321271896362,1.715300440788269
7.77293505859375,0.5866768392307683,0.2324760824987664,-0.1056622684329748,-0.1898746341466903,0.2736170887947082,1.7043540477752686
7.792986083984375,0.9021545916736126,0.67199427530393,-1.0530839888095855,-0.142846405506134,0.027680180966854,1.7872064113616943
7.813036376953125,1.048447268919647,0.9674199677884578,-2.13890120344162,-0.0078469580039381,-0.1053827777504921,1.864055037498474
7.83308740234375,0.8919207824289799,1.1539084618225692,-2.7275141618341205,0.1271947026252746,0.0485628247261047,1.8748040199279783
7.8531376953125,0.7623384169653058,1.1548429661937056,-2.23649590075314,0.1366472691297531,0.3221524655818939,1.8154864311218264
7.8731884765625,0.8192391387082636,0.9967135745510458,-1.3299971423953771,0.0950556993484497,0.4161504805088043,1.7292492389678955
7.893239501953125,1.170134497219324,1.050157068512216,-0.7630681925445795,0.1374488323926925,0.3921652734279632,1.7256791591644287
7.91329052734375,1.3375364518590271,1.1715209831416606,-0.4910755442261695,0.2193917036056518,0.3709651231765747,1.7533986568450928
7.93334130859375,1.291983784212917,1.1422731152169403,0.3529460074305534,0.2296288758516311,0.3565771877765655,1.755175232887268
7.9533916015625,1.118039933649078,1.0867464583061637,0.9524725740253924,0.1949889510869979,0.3274342715740204,1.7253724336624146
7.9734423828125,1.1204453873556106,1.057470021874085,1.1967886953890323,0.1795796900987625,0.2472889423370361,1.7078068256378174
7.993493408203125,1.2568413052916525,1.079677981224656,1.201386544573307,0.150825560092926,0.1050479561090469,1.7266952991485596
8.013544677734375,1.097040181044489,1.12806550697051,1.0914730484366415,0.0895138680934906,-0.0356473922729492,1.7009530067443848
8.033594482421876,0.436754463712871,1.0232191580303012,0.5516325965195894,0.0667682439088821,-0.0842127650976181,1.5328415632247925
8.0536455078125,0.1682328707722015,0.7457420869514345,-0.0928314284324646,0.0338441506028175,-0.0532794594764709,1.3368501663208008
8.07369677734375,0.4917680930675938,0.5124949104823172,-0.5420283173501491,0.0129891354590654,0.0723147466778755,1.2069681882858276
8.09374755859375,0.9680823772199452,0.5461273501668125,-0.9494061721920968,0.0649085789918899,0.2437116354703903,1.18179452419281
8.11379736328125,1.2336859090231358,0.6856226223576813,-0.5171966584324836,0.0996819734573364,0.3577163219451904,1.2208871841430664
8.1338486328125,1.2280135624751447,0.6141784114774316,0.4825725042968988,0.0681165680289268,0.3134881258010864,1.2135049104690552
8.1538994140625,1.2550466769598425,0.4754650103792548,1.1319009204149246,-0.0017691281391307,0.2177081704139709,1.2090281248092651
8.173950439453124,1.4976953035026788,0.5002265266701579,1.105366549232602,-0.0308363288640975,0.143381729722023,1.27046537399292
8.19400048828125,1.4685237156845627,0.5186758276069536,0.7548176660716533,-0.0201489813625812,0.0915891230106353,1.3407665491104126
8.214051513671874,1.5536419393911958,0.4737554299823939,0.746727883118391,-0.0438556596636772,0.0002776402980089,1.4303582906723022
8.2341025390625,1.3802980274818837,0.3724695500027388,0.6187240190178156,-0.0568435229361057,-0.0977678969502449,1.4549481868743896
8.2541533203125,0.9034807257108388,0.2610775057461112,0.0684632953733205,-0.014780736528337,-0.1300358772277832,1.4002548456192017
8.27420458984375,0.667513476628065,0.1263601154815405,-0.047787002569437,-0.034696340560913,-0.1112087965011596,1.315790057182312
8.294254638671875,0.7521254313129931,0.0561621783353388,-0.2107961290776729,-0.0182854570448398,-0.0849866420030593,1.274325609207153
8.314305419921874,0.9399442241027952,0.091228011823818,-0.4565677099466323,0.0417942814528942,-0.0930678099393844,1.264423131942749
8.334356689453125,0.912461100828275,0.0442651851188391,-0.1822983488678932,0.0509948134422302,-0.1063079088926315,1.2379302978515625
8.35440771484375,0.7684417753417044,-0.0377747636536136,-0.034435353565216,0.0583284236490726,-0.1056074276566505,1.177013635635376
8.37445751953125,0.6715842331983148,-0.1173235897300764,0.0264689047306776,0.0640270411968231,-0.1046939045190811,1.115719199180603
8.394508544921875,0.739818980512768,-0.1724495203528553,0.2708879019469022,0.0505730137228965,-0.1307012736797332,1.0670545101165771
8.4145595703125,0.7617232076764107,-0.1969854842595756,0.1352273856133222,0.070108912885189,-0.1307402104139328,1.0511486530303955
8.434610595703125,0.9930741951353848,-0.2408634236264973,-0.2346902148842811,0.1566028147935867,-0.1578928083181381,1.0841705799102783
8.454660400390624,1.070064788096398,-0.3482692843237892,-0.3598462883383035,0.2539682984352112,-0.2335466295480728,1.1368273496627808
8.47471142578125,0.640189781698957,-0.4795987491831183,-0.1056125840723514,0.2622025310993194,-0.3164498209953308,1.085834503173828
8.494762451171875,-0.1277899290889501,-0.6159191907301544,0.1019838721811771,0.1443439573049545,-0.4041110277175903,0.8950685858726501
8.5148134765625,-0.8444698799461126,-0.3852514728276058,-0.2962000378578901,-0.0445104613900184,-0.4789170026779175,0.6127557754516602
8.5348642578125,-1.0748392359565944,-0.3094362437888979,-1.28651865067482,-0.2228925228118896,-0.4412052035331726,0.2875085175037384
8.55491455078125,-0.3805276957087218,-0.3027136210029945,-2.3573680132776498,-0.3006017804145813,-0.2208472788333892,0.1125561371445655
8.57496533203125,0.790129364079982,-0.1701243653409183,-3.2228970478653904,-0.1824781000614166,0.1655522882938385,0.174849197268486
8.595016357421875,1.5818565187454223,-0.0554102274568751,-3.0352590915352105,0.0537859164178371,0.4218752980232239,0.352590262889862
8.615067626953126,1.9733304097518325,-0.0626325433932244,-1.633480322998762,0.3022747337818146,0.3392258882522583,0.6366194486618042
8.635117431640625,2.051286632874608,-0.0223307454800233,-0.2702344064742326,0.5394948124885559,0.0988386496901512,0.9190242290496826
8.65516845703125,1.2639230802461503,0.0791512781262397,1.0462748933166266,0.623278796672821,-0.0265223681926727,1.020957589149475
8.6752197265625,0.4025722081258893,0.0801356129884719,2.0079431657105684,0.5450013279914856,-0.0373308695852756,0.973778247833252
8.6952705078125,0.0328611630510538,0.2017228149797767,2.2012696890711783,0.4455285966396332,0.0090665854513645,0.8931598663330078
8.715320556640625,0.009630874915421,0.3316100816741585,1.798136047670245,0.4085937738418579,-0.0283579118549823,0.8195002675056458
8.735371826171875,0.0694227149900049,0.5445983139686286,1.4674731837183237,0.3432000577449798,-0.1419380009174347,0.7735408544540405
8.755422607421876,0.2606348765451461,0.8664411079313605,0.8040344091832637,0.2959353029727936,-0.2079174667596817,0.7627829909324646
8.7754736328125,0.3561462647765874,1.0964579972423611,-0.0888403129696846,0.2702230811119079,-0.1666363626718521,0.7741394639015198
8.795524658203124,0.6224853443127125,1.1608598153304308,-0.8099848420202732,0.290185809135437,-0.1102646738290786,0.8258551359176636
8.815575439453125,0.784040107294172,1.2580518501251936,-1.2687316495716572,0.3380380272865295,0.0055718617513775,0.9058882594108582
8.835626708984375,0.7366301213435829,1.3019621573917568,-1.159257713896036,0.3545615673065185,0.1456934511661529,0.98867666721344
8.855677734375,0.8391622019920497,1.1526162300549447,-0.6964946564406156,0.3641397356986999,0.1953160315752029,1.0761011838912964
8.875728515625,0.8355505143009125,1.0057055670410393,-0.145530168440938,0.3676137030124664,0.1777230203151703,1.164216160774231
8.895778564453124,0.7214752223096788,0.9360437095329164,0.3666016078174114,0.3264785706996918,0.187899962067604,1.2204475402832031
8.915829345703125,0.4530319370359182,0.7907303987130522,0.716775812447071,0.2373611032962799,0.2503681778907776,1.233057141304016
8.93588037109375,0.3582188332669436,0.6732897219419479,0.6295762524217366,0.1563993543386459,0.2797785103321075,1.2606836557388306
8.955931396484376,0.4019647437520325,0.6556279546536505,0.4774059153139591,0.141559213399887,0.1753096431493759,1.330714464187622
8.9759814453125,0.3853684137381613,0.6539123829074204,0.1168207913070917,0.1711719632148742,0.0865495130419731,1.4303555488586426
8.996032470703126,0.2264395422808826,0.6087766254991293,-0.0765302819728851,0.1804927736520767,0.1220691055059433,1.479182481765747
9.01608349609375,0.0799587951168417,0.5691153539791702,-0.1142746139556169,0.1694818139076233,0.2554961144924164,1.479823350906372
9.036134521484374,0.0228282101407647,0.4872149232752621,0.1676870551913976,0.1407263725996017,0.3059213757514953,1.4615788459777832
9.0561845703125,0.2279861872009932,0.5322039656892419,0.3963262994736433,0.1505789458751678,0.2587788105010986,1.4788975715637207
9.0762353515625,0.3741765731163323,0.6107039402998984,0.532007858595252,0.1635533720254898,0.2112054675817489,1.5103280544281006
9.09628662109375,0.1962684220314025,0.5226908719345927,0.807680072209239,0.1178541257977485,0.2220007628202438,1.4739081859588623
9.116337646484377,0.0871770559325814,0.4116407729834317,0.852876473763585,0.0698005408048629,0.2639440894126892,1.414060354232788
9.136388427734374,0.2645879980850965,0.4317100398048758,0.6784615716218948,0.0692023634910583,0.3036442995071411,1.3951191902160645
9.1564384765625,0.4065672691114246,0.5000701670646667,0.7492039178431034,0.0561221428215503,0.2883777916431427,1.3895257711410522
9.17648974609375,0.3964225263897329,0.459357486795634,0.9480985967248676,0.0298881512135267,0.2480603009462356,1.3775055408477783
9.19654052734375,0.4366825675204396,0.4004568234071135,0.9788286660313604,0.0056424755603075,0.2355960011482238,1.379716873168945
9.216591552734377,0.4237732554562389,0.335573286216706,0.8554887020885944,-0.0134524991735816,0.2123630493879318,1.3861243724822998
9.236641357421876,0.40721930327937,0.2742097398459911,0.70844111482203,-0.0482883378863334,0.1669965088367462,1.4009690284729004
9.2566923828125,0.3375304846990853,0.2163740753404796,0.4314613257408142,-0.0149923022836446,0.0861410945653915,1.4100167751312256
9.276743408203124,0.3327238150697201,0.1056667984776198,0.074100424477458,0.0187487006187438,-0.0656550750136375,1.4323831796646118
9.296794189453124,0.0926124519195407,0.0669568363331258,-0.1483434722959995,0.0374053381383419,-0.1078255474567413,1.4242464303970337
9.316844482421876,-0.3448190342720598,-0.1997712425205856,-0.5573650026917457,0.0155770210549235,-0.0081003420054912,1.322102427482605
9.3368955078125,-0.5460336074687541,-0.2669814690928906,-0.5970692365705966,0.0053414008580148,0.2300441414117813,1.2367727756500244
9.3569462890625,-0.2680938873142003,-0.310026464767009,-0.8551274675607681,0.0426313243806362,0.3353614211082458,1.2114474773406982
9.37699755859375,-0.1932583534952253,-0.3506375843577087,-0.5718699133843184,0.0618425756692886,0.3618796467781067,1.2032158374786377
9.397048583984375,-0.3181277189623564,-0.5629951175332069,-0.2694716054081916,0.076530821621418,0.4329310357570648,1.1468340158462524
9.417098388671874,-0.3833344967577606,-0.6476863479994237,0.0558037202864885,0.0375281572341918,0.5188407897949219,1.066307544708252
9.437149658203126,-0.304932575694099,-0.6450859562426805,0.4087731085926294,-0.082033023238182,0.4573393762111664,1.0139944553375244
9.45720068359375,-0.2795471553511917,-0.6032581543385982,0.0551502248138189,-0.1427807062864303,0.2808208167552948,0.952570378780365
9.47725146484375,-0.2132978097002953,-0.4839761605497449,-1.0050900654911994,-0.1277901530265808,0.1820997595787048,0.8896030187606812
9.4973017578125,-0.0237166103478521,-0.3704531686790287,-1.1171785675793886,-0.1282066106796264,0.206505998969078,0.8564847111701965
9.5173525390625,0.0325416487731039,-0.2290335042968392,-1.4764479328125717,-0.1098189428448677,0.2978120744228363,0.80051189661026
9.537403564453124,-0.0189774164641275,-0.0944359410196542,-1.4234429033339022,-0.0581745132803916,0.3352870941162109,0.7904226183891296
9.55745458984375,0.0992355598537251,-0.0421232046540826,-1.3122025425076485,-0.017204213887453,0.2265520691871643,0.7215790748596191
9.577504638671876,0.2068083380831405,-0.0715566582787781,-0.7977706726133823,-0.02428974583745,0.0686446353793144,0.6579411625862122
9.597555419921877,0.0661543608438223,0.0349924029260873,-0.5253723661035299,-0.0499062240123748,0.004772643558681,0.5459752678871155
9.6176064453125,0.4478671746838837,0.3207462308976799,-0.5025286661326885,0.010864071547985,-0.0009199338965117,0.5582895874977112
9.6376572265625,0.5850363420147449,0.5312600359026343,-0.1812245821565389,0.0813741311430931,0.0771131142973899,0.6031423211097717
9.65770751953125,0.611411869373545,0.7015434642627835,0.2189922950148582,0.1189081147313118,0.2844420373439789,0.7266380190849304
9.67775830078125,1.0605568819735198,0.962813423841074,0.2539028648763894,0.2164672315120697,0.4402872025966644,0.9119406342506408
9.697809326171877,1.2334557535290718,1.0920767864834515,0.5810591820120811,0.173610657453537,0.5052179098129272,1.0813932418823242
9.717860595703126,0.968969900644198,1.0543358885668217,1.2628846771091222,0.0642956122756004,0.3440758883953094,1.2068119049072266
9.737910400390623,0.445668276400119,0.8279241841409355,1.2168313664644956,0.0483405515551567,0.1286088079214096,1.194572925567627
9.75796142578125,0.1158412787504494,0.7198854689002037,1.0222224020779132,-0.1357095688581466,0.1895948946475982,1.1496989727020264
9.7780126953125,-0.272001690141391,0.5627929460246116,1.0539257003307343,-0.4373242557048797,0.5632295608520508,1.1035847663879397
9.7980634765625,0.7291542325049638,0.7356848033174872,-0.6656938599854707,-0.0591760724782943,0.5434914827346802,1.0457652807235718
9.818113525390626,1.4758743707083164,0.6914388343557715,-2.38496913690865,0.2516036927700043,0.1402481645345688,1.028392672538757
9.83816357421875,0.794601175731793,0.5243189115278423,-0.3521510576605796,0.2102486193180084,-0.0672139525413513,0.9645221829414368
9.858214599609376,0.7120489300556481,0.5649013895459473,0.2335708554655313,0.0496261157095432,0.0322454757988452,0.9118279218673706
9.878265625,1.0242880293708294,0.692253804000467,0.4219716128617525,-0.1683578193187713,0.2322196513414383,0.9341249465942384
9.898316650390624,0.6749324476476758,0.4257601914897561,0.5697767404973506,-0.2678464949131012,0.3216839730739593,0.8270894885063171
